Folder: RRI/Tinius-Olsen_Levitation_force/Measurements (part 2)

File: 20231204_1223cut1_highN_1.txt
4/12/2023 12:23:57 pm
Time(s)	Displacement(mm)	Force(N)
0.0000	-281.2420	1.0455
1.4467	-281.2420	1.0430
2.8501	-281.2420	1.0462
4.2544	-281.2420	1.0440
5.6616	-281.2420	1.0418
7.0651	-281.2420	1.0458
8.4691	-281.2420	1.0432
9.8725	-281.2420	1.0511
11.2740	-281.2420	1.0479
12.6799	-281.2420	1.0492
14.0826	-281.2420	1.0499
15.5099	-281.0000	1.0564
16.9133	-281.0000	1.0571
18.3169	-281.0000	1.0543
19.7192	-281.0000	1.0570
21.1245	-281.0000	1.0553
22.5278	-281.0000	1.0642
23.9341	-281.0000	1.0594
25.3367	-281.0000	1.0601
26.7386	-281.0000	1.0586
28.1418	-281.0000	1.0585
29.5501	-281.0000	1.0632
30.9522	-281.0000	1.0612
32.3618	-281.0000	1.0607
33.7660	-281.0000	1.0647
35.1686	-281.0000	1.0648
36.5738	-281.0000	1.0722
37.9762	-281.0000	1.0647
39.3823	-278.5570	1.1003
40.7853	-275.7470	1.1463
42.1872	-263.4690	1.3399
43.5904	-249.4210	1.3776
44.9921	-236.5680	1.3480
46.3984	-237.4220	1.3729
47.8025	-248.1970	1.3687
49.2052	-262.2450	1.3447
50.6088	-276.2460	1.1586
52.0102	-290.2930	0.9754
53.4166	-292.5320	0.9284
54.8226	-292.5320	0.9276
56.2265	-292.5320	0.9326
57.6298	-292.5320	0.9292
59.0343	-292.5320	0.9331
60.4364	-292.5320	0.9327
61.8421	-292.5320	0.9313
63.2462	-292.5320	0.9323
64.6546	-292.5320	0.9289
66.0553	-292.5320	0.9327
67.4592	-292.5320	0.9334
68.8616	-292.5320	0.9319
70.2651	-292.5320	0.9340
71.6697	-292.5320	0.9369
73.0719	-292.5320	0.9376
74.4733	-292.5320	0.9334
75.8768	-292.5320	0.9335
77.2812	-292.5320	0.9362
78.6862	-292.5320	0.9367
80.0917	-292.5320	0.9364
81.4931	-292.5320	0.9384
82.8941	-292.5320	0.9383
84.2988	-292.5320	0.9358
85.7069	-292.5320	0.9386
87.1064	-292.5320	0.9353
88.5100	-292.5320	0.9388
89.9129	-292.5320	0.9372
91.3198	-292.5320	0.9381
92.7235	-292.5320	0.9372
94.1281	-292.5320	0.9374
95.5318	-292.5320	0.9350
96.9370	-292.5320	0.9366
98.3396	-292.5320	0.9380
99.7470	-292.5320	0.9377
101.1491	-292.5320	0.9355
102.5569	-292.5320	0.9354
103.9623	-292.5320	0.9429
105.3648	-292.5320	0.9351
106.7694	-292.5320	0.9378
108.1742	-292.5320	0.9393
109.5779	-292.5320	0.9373
110.9823	-292.5320	0.9386
112.3821	-292.5320	0.9415
113.7871	-292.5320	0.9427
115.1932	-292.5320	0.9406
116.5975	-292.5320	0.9395
118.0027	-292.5320	0.9355
119.4115	-292.5320	0.9393
120.8175	-292.5320	0.9378
122.2206	-292.5320	0.9367
123.6229	-292.5320	0.9403
125.0275	-292.5320	0.9380
126.4292	-292.5320	0.9336
127.8323	-292.5320	0.9440
129.2357	-292.5320	0.9419
130.6392	-292.5320	0.9430
132.0432	-292.5320	0.9362
133.4501	-292.5320	0.9447
134.8565	-292.5320	0.9399
136.2844	-292.0000	0.9485
137.6846	-292.0000	0.9568
139.0903	-292.0000	0.9573
140.4985	-292.0000	0.9539
141.9025	-292.0000	0.9551
143.3050	-292.0000	0.9554
144.7113	-292.0000	0.9501
146.1145	-292.0000	0.9486
147.5205	-292.0000	0.9535
148.9265	-292.0000	0.9521
150.3341	-292.0000	0.9544
151.7374	-292.0000	0.9582
153.1375	-292.0000	0.9503
154.5407	-292.0000	0.9493
155.9467	-292.0000	0.9539
157.3498	-292.0000	0.9547
158.7514	-292.0000	0.9570
160.1561	-292.0000	0.9502
161.5592	-292.0000	0.9566
162.9626	-292.0000	0.9532
164.3668	-292.0000	0.9516
165.7728	-292.0000	0.9524
167.1730	-292.0000	0.9517
168.5728	-292.0000	0.9529
169.9781	-292.0000	0.9540
171.3829	-292.0000	0.9531
172.7856	-292.0000	0.9541
174.1875	-292.0000	0.9528
175.5891	-292.0000	0.9512
176.9929	-292.0000	0.9574
178.4006	-292.0000	0.9551
179.8053	-292.0000	0.9545
181.2075	-292.0000	0.9498
182.6106	-292.0000	0.9580
184.0145	-292.0000	0.9539
185.4184	-292.0000	0.9554
186.8306	-292.0000	0.9541
188.2372	-292.0000	0.9576
189.6443	-292.0000	0.9519
191.0487	-292.0000	0.9453
192.4507	-292.0000	0.9495
193.8537	-292.0000	0.9562
195.2553	-292.0000	0.9565
196.6620	-292.0000	0.9554
198.0669	-292.0000	0.9548
199.4672	-292.0000	0.9531
200.8679	-292.0000	0.9492
202.2724	-292.0000	0.9552
203.6762	-292.0000	0.9516
205.0845	-292.0000	0.9515
206.4850	-292.0000	0.9527
207.8898	-292.0000	0.9550
209.2918	-292.0000	0.9530
210.6987	-292.0000	0.9557
212.1014	-292.0000	0.9584
213.5069	-292.0000	0.9570
214.9093	-292.0000	0.9599
216.3111	-292.0000	0.9528
217.7355	-295.9000	0.9505
219.1388	-300.0010	0.6521
220.5424	-300.0000	0.6645
221.9456	-300.0000	0.6676
223.3517	-300.0000	0.6688
224.7575	-300.0000	0.6738
226.1613	-300.0000	0.6705
227.5659	-300.0000	0.6716
228.9660	-300.0000	0.6731
230.3709	-300.0000	0.6754
231.7930	-308.5560	0.3033
233.1969	-316.8010	-2.5664
234.6014	-316.8000	-4.5339
236.0043	-316.8000	-4.1841
237.4107	-316.8000	-4.0216
238.8183	-316.8000	-3.9196
240.2235	-316.8000	-3.8404
241.6292	-316.8000	-3.7884
243.0314	-316.8000	-3.7383
244.4353	-316.8000	-3.6977
245.8399	-316.8000	-3.6578
247.2433	-316.8000	-3.6301
248.6477	-316.8000	-3.6001
250.0507	-316.8000	-3.5787
251.4528	-316.8000	-3.5565
252.8602	-316.8000	-3.5322
254.2626	-316.8000	-3.5182
255.6693	-316.8000	-3.4966
257.0723	-316.8000	-3.4806
258.4748	-316.8000	-3.4668
259.8763	-316.8000	-3.4495
261.2806	-316.8000	-3.4391
262.6839	-316.8000	-3.4244
264.0871	-316.8000	-3.4119
265.4898	-316.8000	-3.3993
266.8937	-316.8000	-3.3909
268.3002	-316.8000	-3.3824
269.7090	-316.8000	-3.3651
271.1140	-316.8000	-3.3592
272.5147	-316.8000	-3.3500
273.9201	-316.8000	-3.3390
275.3207	-316.8000	-3.3332
276.7261	-316.8000	-3.3275
278.1288	-316.8000	-3.3136
279.5317	-316.8000	-3.3084
280.9354	-316.8000	-3.3014
282.3381	-316.8000	-3.2941
283.7437	-316.8000	-3.2898
285.1473	-316.8000	-3.2806
286.5528	-316.8000	-3.2751
287.9590	-316.8000	-3.2716
289.3622	-316.8000	-3.2623
290.7662	-316.8000	-3.2585
292.1700	-316.8000	-3.2526
293.5748	-316.8000	-3.2422
294.9794	-316.8000	-3.2389
296.3810	-316.8000	-3.2350
297.7844	-316.8000	-3.2282
299.1893	-316.8000	-3.2261
300.5943	-316.8000	-3.2200
301.9983	-316.8000	-3.2104
303.3999	-316.8000	-3.2029
304.8037	-316.8000	-3.2044
306.2069	-316.8000	-3.1975
307.6125	-316.8000	-3.1944
309.0169	-316.8000	-3.1873
310.4214	-316.8000	-3.1854
311.8246	-316.8000	-3.1816
313.2277	-316.8000	-3.1783
314.6323	-316.8000	-3.1727
316.0375	-316.8000	-3.1698
317.4412	-316.8000	-3.1644
318.8440	-316.8000	-3.1626
320.2466	-316.8000	-3.1584
321.6472	-316.8000	-3.1576
323.0536	-316.8000	-3.1479
324.4561	-316.8000	-3.1472
325.8555	-316.8000	-3.1448
327.2593	-316.8000	-3.1399
328.6648	-316.8000	-3.1387
330.0676	-316.8000	-3.1316
331.4719	-316.8000	-3.1287
332.8731	-316.8000	-3.1279
334.2748	-316.8000	-3.1258
335.6789	-316.8000	-3.1187
337.0854	-316.8000	-3.1187
338.4885	-316.8000	-3.1130
339.8915	-316.8000	-3.1125
341.2916	-316.8000	-3.1073
342.6965	-316.8000	-3.1050
344.1020	-316.8000	-3.0996
345.5045	-316.8000	-3.0989
346.9075	-316.8000	-3.0999
348.3111	-316.8000	-3.0972
349.7158	-316.8000	-3.0905
351.1205	-316.8000	-3.0878
352.5249	-316.8000	-3.0853
353.9247	-316.8000	-3.0824
355.3287	-316.8000	-3.0832
356.7298	-316.8000	-3.0783
358.1345	-316.8000	-3.0749
359.5388	-316.8000	-3.0743
360.9415	-316.8000	-3.0697
362.3452	-316.8000	-3.0695
363.7500	-316.8000	-3.0660
365.1552	-316.8000	-3.0645
366.5623	-316.8000	-3.0617
367.9665	-316.8000	-3.0575
369.3689	-316.8000	-3.0550
370.7701	-316.8000	-3.0485
372.1731	-316.8000	-3.0540
373.5758	-316.8000	-3.0522
374.9823	-316.8000	-3.0529
376.3885	-316.8000	-3.0446
377.7905	-316.8000	-3.0427
379.1928	-316.8000	-3.0410
380.5973	-316.8000	-3.0416
382.0026	-316.8000	-3.0377
383.4032	-316.8000	-3.0355
384.8054	-316.8000	-3.0343
386.2104	-316.8000	-3.0330
387.6121	-316.8000	-3.0278
389.0156	-316.8000	-3.0319
390.4206	-316.8000	-3.0282
391.8220	-316.8000	-3.0250
393.2290	-316.8000	-3.0191
394.6335	-316.8000	-3.0224
396.0361	-316.8000	-3.0163
397.4393	-316.8000	-3.0154
398.8402	-316.8000	-3.0160
400.2434	-316.8000	-3.0121
401.6446	-316.8000	-3.0095
403.0474	-316.8000	-3.0104
404.4512	-316.8000	-3.0074
405.8556	-316.8000	-3.0068
407.2578	-316.8000	-3.0054
408.6627	-316.8000	-3.0036
410.0689	-316.8000	-3.0016
411.4712	-316.8000	-3.0008
412.8735	-316.8000	-2.9979
414.2765	-316.8000	-2.9949
414.5774	-316.8000	-2.9968

File: 20231204_1344cut1_highN_2.txt
4/12/2023 1:44:46 pm
Time(s)	Displacement(mm)	Force(N)
0.0000	-281.7970	1.0299
1.2642	-281.7970	1.0368
2.4637	-281.7970	1.0306
3.6658	-281.7970	1.0275
4.8710	-281.7970	1.0250
6.0744	-281.7970	1.0297
7.2987	-281.0000	1.0411
8.4996	-281.0000	1.0336
9.7006	-281.0000	1.0325
10.9039	-281.0000	1.0329
12.1050	-281.0000	1.0315
13.3058	-281.0000	1.0360
14.5082	-281.0000	1.0338
15.7103	-281.0000	1.0379
16.9120	-281.0000	1.0357
18.1169	-281.0000	1.0361
19.3199	-281.0000	1.0371
20.5228	-281.0000	1.0378
21.7249	-281.0000	1.0331
22.9292	-281.0000	1.0340
24.1547	-280.4450	1.0619
25.3568	-280.0000	1.0401
26.5632	-280.0000	1.0376
27.7685	-280.0000	1.0372
28.9713	-280.0000	1.0374
30.1729	-280.0000	1.0460
31.3776	-280.0000	1.0468
32.5795	-280.0000	1.0355
33.7813	-280.0000	1.0456
34.9833	-280.0000	1.0435
36.1845	-280.0000	1.0399
37.3891	-280.0000	1.0392
38.5914	-280.0000	1.0428
39.7925	-280.0000	1.0407
40.9975	-280.0000	1.0433
42.2021	-280.0000	1.0372
43.4051	-280.0000	1.0420
44.6060	-280.0000	1.0383
45.8095	-280.0000	1.0385
47.0118	-280.0000	1.0300
48.2138	-280.0000	1.0420
49.4165	-280.0000	1.0409
50.6195	-280.0000	1.0400
51.8233	-280.0000	1.0375
53.0264	-280.0000	1.0405
54.2277	-280.0000	1.0358
55.4283	-280.0000	1.0380
56.6283	-280.0000	1.0437
57.8315	-280.0000	1.0392
59.0352	-280.0000	1.0448
60.2382	-280.0000	1.0435
61.4394	-280.0000	1.0405
62.6439	-280.0000	1.0400
63.8489	-280.0000	1.0378
65.0518	-280.0000	1.0402
66.2521	-280.0000	1.0469
67.4531	-280.0000	1.0470
68.6539	-280.0000	1.0409
69.8565	-280.0000	1.0357
71.0584	-280.0000	1.0319
72.2587	-280.0000	1.0446
73.4598	-280.0000	1.0350
74.6617	-280.0000	1.0397
75.8675	-280.0000	1.0470
77.0711	-280.0000	1.0533
78.2735	-280.0000	1.0376
79.4762	-280.0000	1.0465
80.6772	-280.0000	1.0458
81.8776	-280.0000	1.0414
83.0826	-280.0000	1.0386
84.2868	-280.0000	1.0484
85.4896	-280.0000	1.0491
86.6912	-280.0000	1.0479
87.8940	-280.0000	1.0182
89.0959	-280.0000	1.0529
90.2990	-280.0000	1.0474
91.5015	-280.0000	1.0294
92.7027	-280.0000	1.0288
93.9029	-280.0000	1.0349
95.1050	-280.0000	1.0466
96.3063	-280.0000	1.0278
97.5082	-280.0000	1.0301
98.7100	-280.0000	1.0305
99.9122	-280.0000	1.0379
101.1150	-280.0000	1.0335
102.3160	-280.0000	1.0469
103.5179	-280.0000	1.0357
104.7201	-280.0000	1.0656
105.9237	-280.0000	1.0600
107.1246	-280.0000	1.0400
108.3281	-280.0000	1.0446
109.5301	-280.0000	1.0379
110.7302	-280.0000	1.0267
111.9311	-280.0000	1.0293
113.1361	-280.0000	1.0539
114.3385	-280.0000	1.0538
115.5402	-280.0000	1.0501
116.7640	-285.2450	1.0068
117.9681	-293.2780	0.9147
119.1744	-301.3150	0.6810
120.3802	-309.3470	-0.2385
121.5825	-316.8020	-3.4965
122.7827	-316.8000	-3.2177
123.9850	-316.8000	-3.0126
125.1866	-316.8000	-2.9075
126.3900	-316.8000	-2.8259
127.5902	-316.8000	-2.7762
128.7915	-316.8000	-2.7414
129.9977	-316.8000	-2.6933
131.2004	-316.8000	-2.6657
132.4056	-316.8000	-2.6455
133.6082	-316.8000	-2.6218
134.8134	-316.8000	-2.6027
136.0151	-316.8000	-2.5753
137.2174	-316.8000	-2.5760
138.4184	-316.8000	-2.5553
139.6226	-316.8000	-2.5362
140.8227	-316.8000	-2.5269
142.0247	-316.8000	-2.5175
143.2313	-316.8000	-2.4982
144.4343	-316.8000	-2.4914
145.6359	-316.8000	-2.4827
146.8392	-316.8000	-2.4718
148.0403	-316.8000	-2.4624
149.2459	-316.8000	-2.4521
150.4502	-316.8000	-2.4482
151.6514	-316.8000	-2.4442
152.8514	-316.8000	-2.4309
154.0528	-316.8000	-2.4246
155.2560	-316.8000	-2.4214
156.4569	-316.8000	-2.4150
157.6613	-316.8000	-2.4053
158.8638	-316.8000	-2.3998
160.0690	-316.8000	-2.3961
161.2725	-316.8000	-2.3909
162.4746	-316.8000	-2.3838
163.6762	-316.8000	-2.3733
164.8783	-316.8000	-2.3688
166.0809	-316.8000	-2.3699
167.2858	-316.8000	-2.3675
168.4870	-316.8000	-2.3564
169.6881	-316.8000	-2.3564
170.8896	-316.8000	-2.3489
172.0909	-316.8000	-2.3434
173.2909	-316.8000	-2.3411
174.4947	-316.8000	-2.3338
175.6983	-316.8000	-2.3309
176.8995	-316.8000	-2.3292
178.1022	-316.8000	-2.3236
179.3041	-316.8000	-2.3164
180.5078	-316.8000	-2.3176
181.7108	-316.8000	-2.3115
182.9127	-316.8000	-2.3128
184.1131	-316.8000	-2.3068
185.3159	-316.8000	-2.3033
186.5218	-316.8000	-2.3013
187.7257	-316.8000	-2.2953
188.9292	-316.8000	-2.2961
190.1304	-316.8000	-2.2900
191.3328	-316.8000	-2.2907
192.5348	-316.8000	-2.2855
193.7355	-316.8000	-2.2824
194.9368	-316.8000	-2.2800
196.1391	-316.8000	-2.2766
197.3410	-316.8000	-2.2737
198.5458	-316.8000	-2.2689
199.7487	-316.8000	-2.2694
200.9488	-316.8000	-2.2680
202.1511	-316.8000	-2.2648
203.3535	-316.8000	-2.2649
204.5544	-316.8000	-2.2619
205.7590	-316.8000	-2.2576
206.9636	-316.8000	-2.2549
208.1672	-316.8000	-2.2509
209.3710	-316.8000	-2.2529
210.5717	-316.8000	-2.2509
211.7735	-316.8000	-2.2431
212.9769	-316.8000	-2.2440
214.1785	-316.8000	-2.2406
215.3799	-316.8000	-2.2388
216.5813	-316.8000	-2.2361
217.7844	-316.8000	-2.2338
218.9852	-316.8000	-2.2307
220.1901	-316.8000	-2.2299
221.3934	-316.8000	-2.2298
222.5962	-316.8000	-2.2231
223.7994	-316.8000	-2.2235
225.0013	-316.8000	-2.2196
226.2083	-316.8000	-2.2201
227.4105	-316.8000	-2.2166
228.6115	-316.8000	-2.2171
229.8134	-316.8000	-2.2165
231.0133	-316.8000	-2.2104
232.2162	-316.8000	-2.2129
233.4184	-316.8000	-2.2075
234.6225	-316.8000	-2.2087
235.8252	-316.8000	-2.2073
237.0274	-316.8000	-2.2056
238.2286	-316.8000	-2.2043
239.4315	-316.8000	-2.2022
240.6353	-316.8000	-2.2013
241.8364	-316.8000	-2.2033
243.0392	-316.8000	-2.1960
244.2387	-316.8000	-2.1953
245.4416	-316.8000	-2.1922
246.6425	-316.8000	-2.1910
247.8463	-316.8000	-2.1901
249.0492	-316.8000	-2.1900
250.2501	-316.8000	-2.1840
251.4512	-316.8000	-2.1876
252.6545	-316.8000	-2.1837
253.8565	-316.8000	-2.1784
255.0615	-316.8000	-2.1811
256.2632	-316.8000	-2.1779
257.4687	-316.8000	-2.1794
258.6691	-316.8000	-2.1778
259.8717	-316.8000	-2.1778
261.0767	-316.8000	-2.1724
262.2785	-316.8000	-2.1715
263.4817	-316.8000	-2.1734
264.6841	-316.8000	-2.1678
265.8846	-316.8000	-2.1657
267.0885	-316.8000	-2.1666
268.2917	-316.8000	-2.1653
269.4952	-316.8000	-2.1649
270.6967	-316.8000	-2.1664
271.9001	-316.8000	-2.1602
273.1017	-316.8000	-2.1604
274.3043	-316.8000	-2.1583
275.5043	-316.8000	-2.1619
276.7038	-316.8000	-2.1586
277.9071	-316.8000	-2.1568
279.1101	-316.8000	-2.1565
280.3119	-316.8000	-2.1531
281.5169	-316.8000	-2.1518
282.7214	-316.8000	-2.1510
283.9221	-316.8000	-2.1513
285.1239	-316.8000	-2.1501
286.3274	-316.8000	-2.1474
287.5326	-316.8000	-2.1469
288.7377	-316.8000	-2.1470
289.9374	-316.8000	-2.1469
291.1415	-316.8000	-2.1444
292.3438	-316.8000	-2.1431
293.5464	-316.8000	-2.1421
294.7520	-316.8000	-2.1390
295.9558	-316.8000	-2.1418
297.1566	-316.8000	-2.1382
298.3575	-316.8000	-2.1382
299.5610	-316.8000	-2.1363
300.7669	-316.8000	-2.1335
301.9730	-316.8000	-2.1373
303.1745	-316.8000	-2.1316
304.3775	-316.8000	-2.1296
305.5797	-316.8000	-2.1308
306.7814	-316.8000	-2.1300
307.9822	-316.8000	-2.1290
309.1871	-316.8000	-2.1284
310.3922	-316.8000	-2.1294
311.6002	-316.8000	-2.1253
312.8016	-316.8000	-2.1251
314.0060	-316.8000	-2.1224
315.2108	-316.8000	-2.1197
316.4117	-316.8000	-2.1206
317.6141	-316.8000	-2.1226
318.8161	-316.8000	-2.1188
320.0196	-316.8000	-2.1156
321.2235	-316.8000	-2.1168
322.4273	-316.8000	-2.1171
323.6301	-316.8000	-2.1152
324.8334	-316.8000	-2.1158
326.0346	-316.8000	-2.1149
327.2377	-316.8000	-2.1149
328.4388	-316.8000	-2.1159
329.6401	-316.8000	-2.1151
330.8462	-316.8000	-2.1094
332.0503	-316.8000	-2.1101
333.2546	-316.8000	-2.1086
334.4594	-316.8000	-2.1097
335.6615	-316.8000	-2.1080
336.8647	-316.8000	-2.1072
338.0683	-316.8000	-2.1103
339.2702	-316.8000	-2.1077
340.4724	-316.8000	-2.1054
341.6753	-316.8000	-2.1057
342.8770	-316.8000	-2.1036
344.0778	-316.8000	-2.1025
345.2788	-316.8000	-2.1005
346.3804	-316.8000	-2.1002

File: 20231204_1434YBCOs1_sl9_1.txt
4/12/2023 2:34:49 pm
Time(s)	Displacement(mm)	Force(N)
0.0000	-276.6000	1.1037
0.4456	-276.6000	1.0986
0.8463	-276.6000	1.1023
1.2478	-276.6000	1.1039
1.6480	-276.6000	1.1001
2.0477	-276.6000	1.1004
2.4482	-276.6000	1.1006
2.8477	-276.6000	1.1026
3.2493	-276.6000	1.1049
3.6524	-276.6000	1.1041
4.0550	-276.6000	1.1049
4.4562	-276.6000	1.1058
4.8576	-276.6000	1.1056
5.2579	-276.6000	1.1056
5.6583	-276.6000	1.1022
6.0600	-276.6000	1.1050
6.4615	-276.6000	1.1048
6.8618	-276.6000	1.1024
7.2620	-276.6000	1.1078
7.6619	-276.6000	1.1090
8.0623	-276.6000	1.1038
8.4634	-276.6000	1.1099
8.8642	-276.6000	1.1040
9.2643	-276.6000	1.1058
9.6663	-276.6000	1.1016
10.0660	-276.6000	1.1055
10.4657	-276.6000	1.1023
10.8674	-276.6000	1.1094
11.2679	-276.6000	1.0952
11.6698	-276.6000	1.0947
12.0719	-276.6000	1.0991
12.4939	-276.0000	1.1258
12.8942	-276.0000	1.1162
13.2953	-276.0000	1.1160
13.6957	-276.0000	1.1163
14.0968	-276.0000	1.1123
14.4985	-276.0000	1.1151
14.8997	-276.0000	1.1249
15.3019	-276.0000	1.1131
15.7021	-276.0000	1.1138
16.1016	-276.0000	1.1171
16.5038	-276.0000	1.1154
16.9054	-276.0000	1.1166
17.3067	-276.0000	1.1123
17.7077	-276.0000	1.1152
18.1104	-276.1630	1.1165
18.5327	-278.5620	1.0748
18.9334	-280.0010	1.0625
19.3341	-280.0010	1.0681
19.7374	-280.0000	1.0638
20.1380	-280.0000	1.0665
20.5379	-280.0000	1.0593
20.9375	-280.0000	1.0538
21.3404	-280.0000	1.0519
21.7405	-280.0000	1.0717
22.1414	-280.0000	1.0657
22.5410	-280.0000	1.0705
22.9420	-280.0000	1.0575
23.3430	-280.0000	1.0601
23.7432	-280.0000	1.0570
24.1430	-280.0000	1.0667
24.5435	-280.0000	1.0697
24.9446	-280.0000	1.0650
25.3458	-280.0000	1.0520
25.7456	-280.0000	1.0610
26.1458	-280.0000	1.0519
26.5476	-280.0000	1.0698
26.9497	-280.0000	1.0610
27.3503	-280.0000	1.0646
27.7502	-280.0000	1.0512
28.1523	-280.0000	1.0621
28.5530	-280.0000	1.0601
28.9529	-280.0000	1.0568
29.3535	-280.0000	1.0611
29.7530	-280.0000	1.0585
30.1547	-280.0000	1.0613
30.5559	-280.0000	1.0640
30.9559	-280.0000	1.0622
31.3559	-280.0000	1.0636
31.7559	-280.0000	1.0728
32.1559	-280.0000	1.0716
32.5782	-281.9070	1.0520
32.9798	-284.5740	1.0266
33.3834	-287.2740	1.0065
33.7838	-289.9400	0.9789
34.1838	-292.6070	0.9553
34.5855	-295.2730	0.9125
34.9852	-297.9380	0.8627
35.3860	-300.6050	0.7860
35.7859	-303.2710	0.6799
36.1859	-305.9370	0.5610
36.5881	-308.6370	0.3871
36.9900	-311.3030	0.1570
37.3905	-314.0030	-0.1636
37.7917	-315.6410	-0.4057
38.1935	-315.6410	-0.1653
38.5944	-315.6400	-0.1189
38.9939	-315.6400	-0.0872
39.3945	-315.6400	-0.0681
39.7959	-315.6400	-0.0549
40.1982	-315.6400	-0.0388
40.5992	-315.6400	-0.0308
41.0011	-315.6400	-0.0254
41.4020	-315.6400	-0.0121
41.8033	-315.6400	-0.0051
42.2036	-315.6400	0.0009
42.6036	-315.6400	0.0057
43.0054	-315.6400	0.0081
43.4053	-315.6400	0.0146
43.8060	-315.6400	0.0223
44.2062	-315.6400	0.0237
44.6080	-315.6400	0.0265
45.0089	-315.6400	0.0294
45.4104	-315.6400	0.0322
45.8105	-315.6400	0.0305
46.2111	-315.6400	0.0430
46.6113	-315.6400	0.0365
47.0113	-315.6400	0.0463
47.4119	-315.6400	0.0488
47.8126	-315.6400	0.0557
48.2119	-315.6400	0.0478
48.6128	-315.6400	0.0455
49.0144	-315.6400	0.0611
49.4152	-315.6400	0.0595
49.8160	-315.6400	0.0566
50.2159	-315.6400	0.0643
50.6174	-315.6400	0.0623
51.0197	-315.6400	0.0614
51.4188	-315.6400	0.0737
51.8188	-315.6400	0.0757
52.2208	-315.6400	0.0719
52.6247	-315.6400	0.0680
53.0267	-315.6400	0.0760
53.4261	-315.6400	0.0781
53.8282	-315.6400	0.0797
54.2284	-315.6400	0.0726
54.6283	-315.6400	0.0715
55.0286	-315.6400	0.0776
55.4284	-315.6400	0.0818
55.8279	-315.6400	0.0920
56.2279	-315.6400	0.0772
56.6280	-315.6400	0.0927
57.0306	-315.6400	0.0824
57.4318	-315.6400	0.0839
57.8315	-315.6400	0.0907
58.2315	-315.6400	0.0926
58.6323	-315.6400	0.0996
59.0344	-315.6400	0.0912
59.4362	-315.6400	0.0959
59.8370	-315.6400	0.0934
60.2387	-315.6400	0.0960
60.6398	-315.6400	0.1019
61.0413	-315.6400	0.0959
61.4414	-315.6400	0.0892
61.8437	-315.6400	0.1000
62.2439	-315.6400	0.1008
62.6449	-315.6400	0.0994
63.0463	-315.6400	0.1013
63.4463	-315.6400	0.1026
63.8477	-315.6400	0.1023
64.2483	-315.6400	0.1064
64.6498	-315.6400	0.1030
65.0506	-315.6400	0.1028
65.4520	-315.6400	0.1070
65.8521	-315.6400	0.1081
66.2522	-315.6400	0.1084
66.6523	-315.6400	0.1125
67.0521	-315.6400	0.1114
67.4539	-315.6400	0.1115
67.8539	-315.6400	0.1126
68.2545	-315.6400	0.1123
68.6566	-315.6400	0.1171
69.0560	-315.6400	0.1118
69.4563	-315.6400	0.1139
69.8573	-315.6400	0.1164
70.2588	-315.6400	0.1148
70.6586	-315.6400	0.1164
71.0594	-315.6400	0.1168
71.4607	-315.6400	0.1173
71.8603	-315.6400	0.1225
72.2617	-315.6400	0.1209
72.6622	-315.6400	0.1168
73.0642	-315.6400	0.1253
73.4661	-315.6400	0.1219
73.8664	-315.6400	0.1183
74.2663	-315.6400	0.1233
74.6662	-315.6400	0.1216
75.0664	-315.6400	0.1209
75.4663	-315.6400	0.1230
75.8672	-315.6400	0.1258
76.2673	-315.6400	0.1223
76.6683	-315.6400	0.1226
77.0683	-315.6400	0.1254
77.4698	-315.6400	0.1257
77.8704	-315.6400	0.1281
78.2714	-315.6400	0.1315
78.6724	-315.6400	0.1273
79.0713	-315.6400	0.1281
79.4729	-315.6400	0.1271
79.8742	-315.6400	0.1302
80.2756	-315.6400	0.1317
80.6759	-315.6400	0.1298
81.0764	-315.6400	0.1351
81.4779	-315.6400	0.1302
81.8786	-315.6400	0.1310
82.2785	-315.6400	0.1341
82.6786	-315.6400	0.1337
83.0799	-315.6400	0.1356
83.4799	-315.6400	0.1370
83.8804	-315.6400	0.1341
84.2824	-315.6400	0.1355
84.6849	-315.6400	0.1341
85.0844	-315.6400	0.1386
85.4863	-315.6400	0.1364
85.8875	-315.6400	0.1387
86.2876	-315.6400	0.1348
86.6873	-315.6400	0.1373
87.0890	-315.6400	0.1315
87.4888	-315.6400	0.1375
87.8887	-315.6400	0.1383
88.2889	-315.6400	0.1465
88.6888	-315.6400	0.1488
89.0889	-315.6400	0.1418
89.4886	-315.6400	0.1369
89.8895	-315.6400	0.1323
90.2907	-315.6400	0.1491
90.6921	-315.6400	0.1443
91.0917	-315.6400	0.1439
91.4932	-315.6400	0.1481
91.8961	-315.6400	0.1440
92.2979	-315.6400	0.1447
92.6991	-315.6400	0.1473
93.0989	-315.6400	0.1445
93.4998	-315.6400	0.1431
93.8993	-315.6400	0.1443
94.2998	-315.6400	0.1422
94.7012	-315.6400	0.1429
95.1018	-315.6400	0.1472
95.5042	-315.6400	0.1469
95.9037	-315.6400	0.1445
96.3053	-315.6400	0.1486
96.7074	-315.6400	0.1523
97.1075	-315.6400	0.1450
97.5115	-315.6400	0.1445
97.9151	-315.6400	0.1557
98.3143	-315.6400	0.1571
98.7146	-315.6400	0.1493
99.1144	-315.6400	0.1539
99.5156	-315.6400	0.1490
99.9172	-315.6400	0.1473
100.3166	-315.6400	0.1523
100.7166	-315.6400	0.1555
101.1166	-315.6400	0.1502
101.5166	-315.6400	0.1531
101.9166	-315.6400	0.1496
102.3165	-315.6400	0.1559
102.7175	-315.6400	0.1557
103.1197	-315.6400	0.1530
103.5229	-315.6400	0.1519
103.9260	-315.6400	0.1498
104.3268	-315.6400	0.1502
104.7285	-315.6400	0.1539
105.1286	-315.6400	0.1513
105.5296	-315.6400	0.1580
105.9307	-315.6400	0.1537
106.3327	-315.6400	0.1531
106.7327	-315.6400	0.1557
107.1335	-315.6400	0.1530
107.5343	-315.6400	0.1559
107.9346	-315.6400	0.1534
108.3365	-315.6400	0.1552