Folder: RRI/Tinius-Olsen_Levitation_force/Measurements (part 4)

File: 20231204_1545YBCOs1_sl9_5.txt
4/12/2023 3:45:38 pm
Time(s)	Displacement(mm)	Force(N)
0.0000	-265.7740	1.2462
0.8216	-270.8710	1.1823
1.6261	-276.2400	1.1368
2.4278	-281.5710	1.1283
3.2289	-286.9080	1.1267
4.0309	-292.2430	1.1074
4.8336	-297.6080	1.0376
5.6359	-302.9410	0.8506
6.4372	-308.3070	0.4858
7.2385	-313.6390	-0.2214
8.0399	-315.6400	-0.8317
8.8406	-315.6400	-0.7532
9.6407	-315.6400	-0.7196
10.4406	-315.6400	-0.6965
11.2463	-315.6400	-0.6784
12.0495	-315.6400	-0.6701
12.8527	-315.6400	-0.6535
13.6546	-315.6400	-0.6464
14.4577	-315.6400	-0.6415
15.2599	-315.6400	-0.6336
16.0617	-315.6400	-0.6282
16.8628	-315.6400	-0.6224
17.6629	-315.6400	-0.6166
18.4635	-315.6400	-0.6110
19.2662	-315.6400	-0.6077
20.0665	-315.6400	-0.6044
20.8722	-315.6400	-0.5992
21.6739	-315.6400	-0.5986
22.4761	-315.6400	-0.5942
23.2770	-315.6400	-0.5921
24.0802	-315.6400	-0.5873
24.8808	-315.6400	-0.5870
25.6831	-315.6400	-0.5836
26.4864	-315.6400	-0.5811
27.2885	-315.6400	-0.5810
28.0890	-315.6400	-0.5767
28.8941	-315.6400	-0.5732
29.6985	-315.6400	-0.5689
30.5005	-315.6400	-0.5679
31.3036	-315.6400	-0.5668
32.1040	-315.6400	-0.5655
32.9065	-315.6400	-0.5635
33.7081	-315.6400	-0.5626
34.5116	-315.6400	-0.5604
35.3137	-315.6400	-0.5578
36.1152	-315.6400	-0.5558
36.9190	-315.6400	-0.5589
37.7225	-315.6400	-0.5539
38.5263	-315.6400	-0.5551
39.3305	-315.6400	-0.5520
40.1360	-315.6400	-0.5492
40.9370	-315.6400	-0.5511
41.7385	-315.6400	-0.5492
42.5385	-315.6400	-0.5453
43.3387	-315.6400	-0.5442
44.1440	-315.6400	-0.5481
44.9450	-315.6400	-0.5452
45.7451	-315.6400	-0.5429
46.5503	-315.6400	-0.5414
47.3521	-315.6400	-0.5389
48.1563	-315.6400	-0.5374
48.9568	-315.6400	-0.5358
49.7580	-315.6400	-0.5392
50.5604	-315.6400	-0.5331
51.3605	-315.6400	-0.5322
52.1633	-315.6400	-0.5325
52.9656	-315.6400	-0.5343
53.7660	-315.6400	-0.5312
54.5668	-315.6400	-0.5330
55.3711	-315.6400	-0.5312
56.1725	-315.6400	-0.5283
56.9758	-315.6400	-0.5301
57.7784	-315.6400	-0.5261
58.5797	-315.6400	-0.5255
59.3826	-315.6400	-0.5229
60.1848	-315.6400	-0.5249
60.9899	-315.6400	-0.5232
61.7954	-315.6400	-0.5235
62.5965	-315.6400	-0.5224
63.3987	-315.6400	-0.5210
64.2015	-315.6400	-0.5214
65.0028	-315.6400	-0.5187
65.8049	-315.6400	-0.5189
66.6080	-315.6400	-0.5160
67.4113	-315.6400	-0.5164
68.2112	-315.6400	-0.5146
69.0129	-315.6400	-0.5138
69.8153	-315.6400	-0.5151
70.6214	-315.6400	-0.5152
71.4232	-315.6400	-0.5166
72.2250	-315.6400	-0.5113
73.0275	-315.6400	-0.5147
73.8287	-315.6400	-0.5130
74.6310	-315.6400	-0.5140
75.4324	-315.6400	-0.5104
76.2334	-315.6400	-0.5105
77.0336	-315.6400	-0.5112
77.8346	-315.6400	-0.5060
78.6368	-315.6400	-0.5098
79.4391	-315.6400	-0.5087
80.2403	-315.6400	-0.5074
81.0414	-315.6400	-0.5075
81.8414	-315.6400	-0.5069
82.6428	-315.6400	-0.5050
83.4435	-315.6400	-0.5055
84.2436	-315.6400	-0.5024
85.0460	-315.6400	-0.5051
85.8481	-315.6400	-0.5038
86.6510	-315.6400	-0.5070
87.4501	-315.6400	-0.5057
88.2538	-315.6400	-0.5044
89.0571	-315.6400	-0.4989
89.8611	-315.6400	-0.5024
90.6651	-315.6400	-0.5027
91.4686	-315.6400	-0.4995
92.2722	-315.6400	-0.5009
93.0790	-315.6400	-0.4992
93.8797	-315.6400	-0.4984
94.6817	-315.6400	-0.4984
95.4815	-315.6400	-0.4977
96.2846	-315.6400	-0.5006
97.0882	-315.6400	-0.4952
97.8890	-315.6400	-0.4990
98.6893	-315.6400	-0.4954
99.4929	-315.6400	-0.4959
100.2935	-315.6400	-0.4929
101.0958	-315.6400	-0.4965
101.8953	-315.6400	-0.4949
102.6990	-315.6400	-0.4931
103.5003	-315.6400	-0.4936
104.3025	-315.6400	-0.4902
105.1047	-315.6400	-0.4924
105.9090	-315.6400	-0.4905
106.7126	-315.6400	-0.4914
107.5138	-315.6400	-0.4928
108.3148	-315.6400	-0.4885
109.1174	-315.6400	-0.4902
109.9193	-315.6400	-0.4881
110.7198	-315.6400	-0.4918
111.5228	-315.6400	-0.4906
112.3239	-315.6400	-0.4876
113.1250	-315.6400	-0.4903
113.9252	-315.6400	-0.4867
114.7278	-315.6400	-0.4874
115.5288	-315.6400	-0.4851
116.3305	-315.6400	-0.4854
117.1319	-315.6400	-0.4875
117.9317	-315.6400	-0.4843
118.7348	-315.6400	-0.4863
119.5349	-315.6400	-0.4838
120.3399	-315.6400	-0.4836
121.1401	-315.6400	-0.4842
121.9464	-315.6400	-0.4854
122.7491	-315.6400	-0.4848
123.5494	-315.6400	-0.4802
124.3518	-315.6400	-0.4796
125.1569	-315.6400	-0.4814
125.9578	-315.6400	-0.4795
126.7591	-315.6400	-0.4832
127.5595	-315.6400	-0.4776
128.3630	-315.6400	-0.4782
129.1662	-315.6400	-0.4775
129.9665	-315.6400	-0.4755
130.7722	-315.6400	-0.4797
131.5727	-315.6400	-0.4825
132.3742	-315.6400	-0.4796
133.1749	-315.6400	-0.4799
133.9762	-315.6400	-0.4781
134.7759	-315.6400	-0.4748
135.5768	-315.6400	-0.4785
136.3824	-315.6400	-0.4749
137.1841	-315.6400	-0.4739
137.9856	-315.6400	-0.4745
138.7865	-315.6400	-0.4755
139.5881	-315.6400	-0.4743
140.3927	-315.6400	-0.4757
141.1943	-315.6400	-0.4786
141.9960	-315.6400	-0.4765
142.7971	-315.6400	-0.4731
143.5992	-315.6400	-0.4764
144.4008	-315.6400	-0.4751
145.2041	-315.6400	-0.4720
146.0076	-315.6400	-0.4719
146.8074	-315.6400	-0.4702
147.6105	-315.6400	-0.4710
148.4115	-315.6400	-0.4718
149.2172	-315.6400	-0.4712
150.0193	-315.6400	-0.4697
150.8203	-315.6400	-0.4700
151.6217	-315.6400	-0.4693
152.4257	-315.6400	-0.4688
153.2301	-315.6400	-0.4687
154.0321	-315.6400	-0.4663
154.8341	-315.6400	-0.4678
155.6347	-315.6400	-0.4673
156.4397	-315.6400	-0.4699
157.2413	-315.6400	-0.4686
158.0423	-315.6400	-0.4645
158.8476	-315.6400	-0.4659
159.6481	-315.6400	-0.4659
160.4489	-315.6400	-0.4696
161.2502	-315.6400	-0.4660
162.0522	-315.6400	-0.4679
162.8535	-315.6400	-0.4659
163.6543	-315.6400	-0.4663
164.4543	-315.6400	-0.4673
165.2561	-315.6400	-0.4661
166.0591	-315.6400	-0.4641
166.8602	-315.6400	-0.4632
167.6622	-315.6400	-0.4633
168.4622	-315.6400	-0.4605
169.2645	-315.6400	-0.4652
170.0686	-315.6400	-0.4681
170.8685	-315.6400	-0.4644
171.6722	-315.6400	-0.4655
172.4741	-315.6400	-0.4644
173.2760	-315.6400	-0.4624
174.0778	-315.6400	-0.4613
174.8799	-315.6400	-0.4613
175.6821	-315.6400	-0.4589
176.4844	-315.6400	-0.4616
177.2841	-315.6400	-0.4604
178.0840	-315.6400	-0.4593
178.8879	-315.6400	-0.4623
179.6903	-315.6400	-0.4635
180.4953	-315.6400	-0.4600
181.2959	-315.6400	-0.4600
182.0959	-315.6400	-0.4591
182.9001	-315.6400	-0.4609
183.7008	-315.6400	-0.4598
184.5001	-315.6400	-0.4587
185.3017	-315.6400	-0.4589
186.1051	-315.6400	-0.4578
186.9102	-315.6400	-0.4589
187.7125	-315.6400	-0.4565
188.5152	-315.6400	-0.4572
189.3196	-315.6400	-0.4582
190.1206	-315.6400	-0.4583
190.9230	-315.6400	-0.4559
191.7222	-315.6400	-0.4563
192.5248	-315.6400	-0.4563
193.3265	-315.6400	-0.4579
194.1301	-315.6400	-0.4575
194.9325	-315.6400	-0.4542
195.7546	-314.4140	-0.4547
196.5568	-309.0810	1.9304
197.3595	-303.7150	1.7872
198.1592	-298.3830	1.5161
198.9615	-293.0480	1.3349
199.7633	-287.6820	1.2395
200.5654	-282.3500	1.1892
201.3656	-277.0180	1.1666
202.1672	-271.6860	1.1699
202.9697	-266.3170	1.2455
203.7708	-265.6390	1.3003
204.5716	-265.6400	1.3004
205.3732	-265.6400	1.3016
206.1945	-263.0980	1.3006
206.9949	-257.7310	1.3597
207.7972	-252.3990	1.3886
208.5987	-247.0670	1.3960
209.4011	-241.6980	1.4016
210.2066	-236.3290	1.3959
211.0097	-230.9630	1.3927
211.8123	-225.6310	1.3938
212.6133	-220.2650	1.3886
213.4146	-215.6390	1.3888
214.2150	-215.6400	1.3906
215.0177	-215.6400	1.3874
215.8176	-215.6400	1.3872
216.6409	-212.3940	1.3901
217.4404	-207.0620	1.3920
218.2412	-201.7300	1.3882
219.0427	-196.3980	1.3892
219.8456	-191.0320	1.3874
220.6456	-185.7000	1.3865
221.4478	-180.3680	1.3858
222.2478	-175.0360	1.3829
223.0486	-169.7030	1.3828
223.8514	-165.6390	1.3848
224.6544	-165.6400	1.3830

File: 20231204_1640GDBCOs2_sl6_1.txt
4/12/2023 4:40:20 pm
Time(s)	Displacement(mm)	Force(N)
0.0000	-258.7030	1.1698
0.6639	-258.2070	1.1838
1.2662	-258.2080	1.1803
1.8671	-258.2080	1.1798
2.4677	-258.2080	1.1812
3.0691	-258.2080	1.1822
3.6693	-258.2080	1.1825
4.2700	-258.2080	1.1859
4.8722	-258.2080	1.1847
5.4750	-258.2080	1.1807
6.0984	-258.0010	1.1775
6.7003	-258.0000	1.1848
7.3009	-258.0000	1.1853
7.9031	-258.0000	1.1865
8.5039	-258.0000	1.1874
9.1063	-258.0000	1.1861
9.7065	-258.0000	1.1883
10.3086	-258.0000	1.1859
10.9108	-258.0000	1.1879
11.5112	-258.0000	1.1864
12.1138	-258.0000	1.1835
12.7159	-258.0000	1.1849
13.3159	-258.0000	1.1915
13.9372	-259.8930	1.1680
14.5385	-260.0000	1.1550
15.1388	-260.0000	1.1592
15.7431	-260.0000	1.1539
16.3462	-260.0000	1.1544
16.9472	-260.0000	1.1573
17.5477	-260.0000	1.1542
18.1512	-260.0000	1.1556
18.7509	-260.0000	1.1547
19.3530	-260.0000	1.1576
19.9531	-260.0000	1.1565
20.5545	-260.0000	1.1566
21.1560	-260.0000	1.1578
21.7591	-260.0000	1.1586
22.3623	-260.0000	1.1576
22.9648	-260.0000	1.1564
23.5673	-260.0000	1.1586
24.1696	-260.0000	1.1592
24.7707	-260.0000	1.1583
25.3728	-260.0000	1.1548
25.9778	-260.0000	1.1642
26.5802	-260.0000	1.1570
27.2030	-261.2020	1.1493
27.8043	-265.2380	1.0953
28.4074	-269.2370	1.0765
29.0103	-273.2710	1.0671
29.6126	-277.2690	1.0550
30.2127	-281.3030	1.0434
30.8167	-285.3010	1.0134
31.4196	-289.3350	0.9724
32.0206	-293.3330	0.8990
32.6231	-297.3320	0.7545
33.2243	-301.3710	0.4768
33.8244	-305.3690	-0.1173
34.4261	-309.3690	-1.4177
35.0281	-313.3680	-4.1100
35.6287	-316.8010	-8.6907
36.2285	-316.8000	-8.1979
36.8278	-316.8000	-7.9545
37.4303	-316.8000	-7.8189
38.0311	-316.8000	-7.7232
38.6337	-316.8000	-7.6529
39.2333	-316.8000	-7.5943
39.8349	-316.8000	-7.5448
40.4373	-316.8000	-7.5064
41.0379	-316.8000	-7.4656
41.6399	-316.8000	-7.4381
42.2412	-316.8000	-7.4053
42.8433	-316.8000	-7.3828
43.4435	-316.8000	-7.3552
44.0434	-316.8000	-7.3341
44.6445	-316.8000	-7.3104
45.2457	-316.8000	-7.2928
45.8454	-316.8000	-7.2727
46.4460	-316.8000	-7.2595
47.0469	-316.8000	-7.2470
47.6485	-316.8000	-7.2285
48.2493	-316.8000	-7.2129
48.8524	-316.8000	-7.2003
49.4560	-316.8000	-7.1857
50.0597	-316.8000	-7.1771
50.6596	-316.8000	-7.1624
51.2599	-316.8000	-7.1529
51.8633	-316.8000	-7.1396
52.4653	-316.8000	-7.1306
53.0674	-316.8000	-7.1186
53.6674	-316.8000	-7.1090
54.2690	-316.8000	-7.0995
54.8713	-316.8000	-7.0895
55.4712	-316.8000	-7.0814
56.0713	-316.8000	-7.0745
56.6711	-316.8000	-7.0655
57.2732	-316.8000	-7.0565
57.8751	-316.8000	-7.0470
58.4785	-316.8000	-7.0423
59.0794	-316.8000	-7.0359
59.6827	-316.8000	-7.0304
60.2835	-316.8000	-7.0201
60.8865	-316.8000	-7.0150
61.4877	-316.8000	-7.0123
62.0883	-316.8000	-7.0026
62.6890	-316.8000	-6.9962
63.2913	-316.8000	-6.9914
63.8945	-316.8000	-6.9828
64.4950	-316.8000	-6.9785
65.0960	-316.8000	-6.9734
65.6994	-316.8000	-6.9699
66.3014	-316.8000	-6.9602
66.9046	-316.8000	-6.9575
67.5056	-316.8000	-6.9477
68.1090	-316.8000	-6.9449
68.7116	-316.8000	-6.9401
69.3136	-316.8000	-6.9358
69.9138	-316.8000	-6.9317
70.5138	-316.8000	-6.9288
71.1135	-316.8000	-6.9241
71.7136	-316.8000	-6.9167
72.3148	-316.8000	-6.9172
72.9169	-316.8000	-6.9079
73.5200	-316.8000	-6.9043
74.1235	-316.8000	-6.8998
74.7253	-316.8000	-6.8964
75.3269	-316.8000	-6.8950
75.9300	-316.8000	-6.8911
76.5312	-316.8000	-6.8814
77.1315	-316.8000	-6.8777
77.7317	-316.8000	-6.8726
78.3314	-316.8000	-6.8711
78.9327	-316.8000	-6.8674
79.5352	-316.8000	-6.8647
80.1358	-316.8000	-6.8589
80.7385	-316.8000	-6.8574
81.3417	-316.8000	-6.8535
81.9435	-316.8000	-6.8482
82.5466	-316.8000	-6.8448
83.1480	-316.8000	-6.8404
83.7482	-316.8000	-6.8376
84.3504	-316.8000	-6.8345
84.9513	-316.8000	-6.8335
85.5534	-316.8000	-6.8310
86.1537	-316.8000	-6.8293
86.7540	-316.8000	-6.8275
87.3543	-316.8000	-6.8240
87.9557	-316.8000	-6.8211
88.5557	-316.8000	-6.8163
89.1568	-316.8000	-6.8089
89.7584	-316.8000	-6.8061
90.3637	-316.8000	-6.8059
90.9643	-316.8000	-6.8038
91.5651	-316.8000	-6.7999
92.1661	-316.8000	-6.7976
92.7673	-316.8000	-6.7925
93.3703	-316.8000	-6.7904
93.9715	-316.8000	-6.7898
94.5736	-316.8000	-6.7880
95.1765	-316.8000	-6.7835
95.7793	-316.8000	-6.7793
96.3813	-316.8000	-6.7800
96.9828	-316.8000	-6.7779
97.5853	-316.8000	-6.7748
98.1901	-316.8000	-6.7694
98.7911	-316.8000	-6.7722
99.3916	-316.8000	-6.7696
99.9939	-316.8000	-6.7653
100.5938	-316.8000	-6.7630
101.1947	-316.8000	-6.7616
101.7951	-316.8000	-6.7559
102.3959	-316.8000	-6.7540
102.9985	-316.8000	-6.7503
103.6005	-316.8000	-6.7510
104.2019	-316.8000	-6.7467
104.8037	-316.8000	-6.7424
105.4047	-316.8000	-6.7420
106.0067	-316.8000	-6.7423
106.6073	-316.8000	-6.7345
107.2091	-316.8000	-6.7327
107.8086	-316.8000	-6.7341
108.4110	-316.8000	-6.7312
109.0117	-316.8000	-6.7289
109.6128	-316.8000	-6.7307
110.2141	-316.8000	-6.7222
110.8147	-316.8000	-6.7219
111.4179	-316.8000	-6.7180
112.0199	-316.8000	-6.7178
112.6210	-316.8000	-6.7145
113.2219	-316.8000	-6.7156
113.8252	-316.8000	-6.7103
114.4265	-316.8000	-6.7093
115.0285	-316.8000	-6.7087
115.6313	-316.8000	-6.7046
116.2316	-316.8000	-6.7036
116.8341	-316.8000	-6.7019
117.4359	-316.8000	-6.7004
118.0376	-316.8000	-6.6993
118.6385	-316.8000	-6.6946
119.2440	-316.8000	-6.6955
119.8459	-316.8000	-6.6925
120.4486	-316.8000	-6.6928
121.0507	-316.8000	-6.6884
121.6515	-316.8000	-6.6844
122.2529	-316.8000	-6.6864
122.8541	-316.8000	-6.6859
123.4541	-316.8000	-6.6831
124.0542	-316.8000	-6.6834
124.6560	-316.8000	-6.6821
125.2580	-316.8000	-6.6819
125.8589	-316.8000	-6.6764
126.4596	-316.8000	-6.6780
127.0625	-316.8000	-6.6757
127.6639	-316.8000	-6.6709
128.2664	-316.8000	-6.6698
128.8681	-316.8000	-6.6690
129.4691	-316.8000	-6.6660
130.0696	-316.8000	-6.6651
130.6702	-316.8000	-6.6664
131.2703	-316.8000	-6.6612
131.8718	-316.8000	-6.6556
132.4727	-316.8000	-6.6533
133.0741	-316.8000	-6.6545
133.6740	-316.8000	-6.6567
134.2760	-316.8000	-6.6488
134.8767	-316.8000	-6.6519
135.4786	-316.8000	-6.6513
136.0809	-316.8000	-6.6557
136.6817	-316.8000	-6.6477
137.2836	-316.8000	-6.6466
137.8843	-316.8000	-6.6483
138.4843	-316.8000	-6.6432
139.0854	-316.8000	-6.6359
139.6869	-316.8000	-6.6378
140.2903	-316.8000	-6.6353
140.8947	-316.8000	-6.6361
141.4964	-316.8000	-6.6358
142.0968	-316.8000	-6.6329
142.6971	-316.8000	-6.6359
143.2979	-316.8000	-6.6314
143.8987	-316.8000	-6.6317
144.5015	-316.8000	-6.6259
145.1020	-316.8000	-6.6281
145.7040	-316.8000	-6.6262
146.3048	-316.8000	-6.6221
146.9070	-316.8000	-6.6224
147.5095	-316.8000	-6.6247
148.1102	-316.8000	-6.6199
148.7133	-316.8000	-6.6185
149.3142	-316.8000	-6.6166
149.9145	-316.8000	-6.6191
150.5153	-316.8000	-6.6154
151.1163	-316.8000	-6.6147
151.7171	-316.8000	-6.6148
152.3170	-316.8000	-6.6096
152.9184	-316.8000	-6.6098
153.5202	-316.8000	-6.6145
154.1261	-316.8000	-6.6131
154.7273	-316.8000	-6.6059
155.3289	-316.8000	-6.6074
155.9309	-316.8000	-6.6019
156.5319	-316.8000	-6.6035
157.1349	-316.8000	-6.6028
157.7359	-316.8000	-6.6003
158.3377	-316.8000	-6.5981
158.9380	-316.8000	-6.6012
159.5415	-316.8000	-6.5959
160.1422	-316.8000	-6.5981
160.7442	-316.8000	-6.5982
161.3440	-316.8000	-6.5931
161.9461	-316.8000	-6.5918
162.5497	-316.8000	-6.5907
163.1703	-314.2330	-6.5916
163.7738	-310.2340	-1.2926
164.3744	-306.2340	0.7602
164.9743	-302.2010	1.3259
165.5756	-298.2000	1.4225
166.1773	-294.2010	1.3822
166.7769	-290.1970	1.3176
167.3777	-286.1960	1.2654
167.9797	-282.1970	1.2211
168.5824	-278.1630	1.1905
169.1842	-274.1640	1.1726
169.7840	-270.1630	1.1542
170.3847	-266.7990	1.1472
170.9859	-266.7990	1.1487
171.5869	-266.8000	1.1552
172.1885	-266.8000	1.1579
172.7909	-266.8000	1.1525
173.3904	-266.8000	1.1485
173.9929	-266.8000	1.1496
174.5923	-266.8000	1.1502
175.1966	-266.8000	1.1479
175.7972	-266.8000	1.1489
176.3997	-266.8000	1.1507
177.0023	-266.8000	1.1519
177.6047	-266.8000	1.1512
178.2048	-266.8000	1.1479
178.8051	-266.8000	1.1498
179.4078	-266.8000	1.1542
179.6081	-266.8000	1.1511

File: 20231204_1644GDBCOs2_sl6_2.txt
4/12/2023 4:44:02 pm
Time(s)	Displacement(mm)	Force(N)
0.0000	-266.9620	1.1273
1.0251	-273.3660	1.1468
2.0281	-280.0670	1.1693
3.0294	-286.7350	1.2075
4.0319	-293.4390	1.2506
5.0358	-300.1390	1.2240
6.0421	-306.8370	0.6366
7.0456	-313.5050	-2.8299
8.0485	-316.8010	-7.0249
9.0534	-316.8000	-6.9281
10.0595	-316.8000	-6.8826
11.0596	-316.8000	-6.8530
12.0617	-316.8000	-6.8285
13.0656	-316.8000	-6.8099
14.0713	-316.8000	-6.7985
15.0768	-316.8000	-6.7860
16.0774	-316.8000	-6.7741
17.0789	-316.8000	-6.7695
18.0805	-316.8000	-6.7549
19.0828	-316.8000	-6.7452
20.0851	-316.8000	-6.7384
21.0899	-316.8000	-6.7302
22.0938	-316.8000	-6.7274
23.0968	-316.8000	-6.7179
24.0983	-316.8000	-6.7119
25.0990	-316.8000	-6.7100
26.0998	-316.8000	-6.7020
27.1010	-316.8000	-6.6995
28.1018	-316.8000	-6.6920
29.1039	-316.8000	-6.6891
30.1060	-316.8000	-6.6844
31.1092	-316.8000	-6.6790
32.1108	-316.8000	-6.6753
33.1130	-316.8000	-6.6708
34.1203	-316.8000	-6.6653
35.1207	-316.8000	-6.6635
36.1220	-316.8000	-6.6596
37.1221	-316.8000	-6.6544
38.1224	-316.8000	-6.6537
39.1248	-316.8000	-6.6438
40.1247	-316.8000	-6.6440
41.1279	-316.8000	-6.6402
42.1299	-316.8000	-6.6368
43.1313	-316.8000	-6.6348
44.1329	-316.8000	-6.6326
45.1358	-316.8000	-6.6280
46.1379	-316.8000	-6.6276
47.1395	-316.8000	-6.6238
48.1408	-316.8000	-6.6205
49.1419	-316.8000	-6.6185
50.1451	-316.8000	-6.6144
51.1458	-316.8000	-6.6128
52.1483	-316.8000	-6.6119
53.1479	-316.8000	-6.6051
54.1518	-316.8000	-6.6019
55.1538	-316.8000	-6.6028
56.1552	-316.8000	-6.6017
57.1566	-316.8000	-6.5954
58.1597	-316.8000	-6.5938
59.1641	-316.8000	-6.5965
60.1654	-316.8000	-6.5895
61.1690	-316.8000	-6.5877
62.1713	-316.8000	-6.5802
63.1734	-316.8000	-6.5801
64.1746	-316.8000	-6.5831
65.1767	-316.8000	-6.5791
66.1797	-316.8000	-6.5776
67.1804	-316.8000	-6.5777
68.1822	-316.8000	-6.5722
69.1827	-316.8000	-6.5725
70.1840	-316.8000	-6.5692
71.1866	-316.8000	-6.5665
72.1891	-316.8000	-6.5655
73.1919	-316.8000	-6.5607
74.1957	-316.8000	-6.5633
75.1970	-316.8000	-6.5578
76.1988	-316.8000	-6.5567
77.2016	-316.8000	-6.5561
78.2038	-316.8000	-6.5553
79.2055	-316.8000	-6.5525
80.2064	-316.8000	-6.5516
81.2084	-316.8000	-6.5485
82.2128	-316.8000	-6.5472
83.2171	-316.8000	-6.5452
84.2207	-316.8000	-6.5430
85.2236	-316.8000	-6.5397
86.2267	-316.8000	-6.5393
87.2264	-316.8000	-6.5377
88.2280	-316.8000	-6.5368
89.2290	-316.8000	-6.5331
90.2300	-316.8000	-6.5359
91.2329	-316.8000	-6.5313
92.2333	-316.8000	-6.5319
93.2362	-316.8000	-6.5280
94.2363	-316.8000	-6.5266
95.2403	-316.8000	-6.5253
96.2429	-316.8000	-6.5260
97.2429	-316.8000	-6.5222
98.2434	-316.8000	-6.5211
99.2470	-316.8000	-6.5200
100.2485	-316.8000	-6.5141
101.2527	-316.8000	-6.5168
102.2533	-316.8000	-6.5175
103.2544	-316.8000	-6.5100
104.2572	-316.8000	-6.5110
105.2604	-316.8000	-6.5082
106.2626	-316.8000	-6.5094
107.2634	-316.8000	-6.5076
108.2647	-316.8000	-6.5078
109.2669	-316.8000	-6.5039
110.2683	-316.8000	-6.5075
111.2706	-316.8000	-6.5006
112.2732	-316.8000	-6.4993
113.2743	-316.8000	-6.5001
114.2757	-316.8000	-6.4955
115.2764	-316.8000	-6.4883
116.2798	-316.8000	-6.4954
117.2807	-316.8000	-6.4976
118.2827	-316.8000	-6.4916
119.2843	-316.8000	-6.4931
120.2838	-316.8000	-6.4848
121.2877	-316.8000	-6.4910
122.2907	-316.8000	-6.4864
123.2925	-316.8000	-6.4849
124.2944	-316.8000	-6.4844
125.2980	-316.8000	-6.4839
126.2976	-316.8000	-6.4823
127.3027	-316.8000	-6.4784
128.3052	-316.8000	-6.4822
129.3076	-316.8000	-6.4801
130.3114	-316.8000	-6.4765
131.3108	-316.8000	-6.4757
132.3132	-316.8000	-6.4783
133.3152	-316.8000	-6.4742
134.3178	-316.8000	-6.4756
135.3208	-316.8000	-6.4711
136.3231	-316.8000	-6.4668
137.3273	-316.8000	-6.4666
138.3292	-316.8000	-6.4655
139.3309	-316.8000	-6.4681
140.3328	-316.8000	-6.4651
141.3357	-316.8000	-6.4655
142.3393	-316.8000	-6.4666
143.3394	-316.8000	-6.4621
144.3422	-316.8000	-6.4624
145.3439	-316.8000	-6.4595
146.3495	-316.8000	-6.4578
147.3501	-316.8000	-6.4561
148.3510	-316.8000	-6.4529
149.3580	-316.8000	-6.4560
150.3599	-316.8000	-6.4543
151.3610	-316.8000	-6.4554
152.3646	-316.8000	-6.4527
153.3660	-316.8000	-6.4524
154.3693	-316.8000	-6.4511
155.3710	-316.8000	-6.4482
156.3710	-316.8000	-6.4494
157.3734	-316.8000	-6.4514
158.3744	-316.8000	-6.4474
159.3753	-316.8000	-6.4472
160.3789	-316.8000	-6.4457
161.3812	-316.8000	-6.4410
162.3852	-316.8000	-6.4394
163.3860	-316.8000	-6.4401
164.3867	-316.8000	-6.4388
165.3876	-316.8000	-6.4407
166.3891	-316.8000	-6.4360
167.3921	-316.8000	-6.4399
168.3939	-316.8000	-6.4364
169.3956	-316.8000	-6.4371
170.3963	-316.8000	-6.4344
171.3981	-316.8000	-6.4361
172.3991	-316.8000	-6.4365
173.4020	-316.8000	-6.4352
174.4048	-316.8000	-6.4304
175.4075	-316.8000	-6.4295
176.4093	-316.8000	-6.4311
177.4103	-316.8000	-6.4280
178.4115	-316.8000	-6.4293
179.4150	-316.8000	-6.4278
180.4169	-316.8000	-6.4267
181.4191	-316.8000	-6.4249
182.4199	-316.8000	-6.4242
183.4211	-316.8000	-6.4219
184.4235	-316.8000	-6.4219
185.4241	-316.8000	-6.4183
186.4252	-316.8000	-6.4198
187.4270	-316.8000	-6.4184
188.4279	-316.8000	-6.4170
189.4298	-316.8000	-6.4187
190.4299	-316.8000	-6.4183
191.4330	-316.8000	-6.4193
192.4374	-316.8000	-6.4155
193.4406	-316.8000	-6.4169
194.4410	-316.8000	-6.4105
195.4458	-316.8000	-6.4144
196.4472	-316.8000	-6.4096
197.4494	-316.8000	-6.4135
198.4512	-316.8000	-6.4129
199.4531	-316.8000	-6.4079
200.4573	-316.8000	-6.4093
201.4599	-316.8000	-6.4034
202.4637	-316.8000	-6.4032
203.4635	-316.8000	-6.4006
204.4669	-316.8000	-6.4099
205.4688	-316.8000	-6.4060
206.4700	-316.8000	-6.4064
207.4729	-316.8000	-6.4022
208.4794	-316.8000	-6.4032
209.4794	-316.8000	-6.4044
210.4831	-316.8000	-6.4030
211.4838	-316.8000	-6.3982
212.4852	-316.8000	-6.3995
213.4881	-316.8000	-6.3983
214.4903	-316.8000	-6.3954
215.4963	-316.8000	-6.3997
216.4998	-316.8000	-6.3913
217.4993	-316.8000	-6.3968
218.5013	-316.8000	-6.3929
219.5040	-316.8000	-6.3944
220.5053	-316.8000	-6.3934
221.5093	-316.8000	-6.3927
222.5123	-316.8000	-6.3911
223.5134	-316.8000	-6.3887
224.5140	-316.8000	-6.3887
225.5146	-316.8000	-6.3902
226.5165	-316.8000	-6.3860
227.5182	-316.8000	-6.3872
228.5195	-316.8000	-6.3864
229.5217	-316.8000	-6.3878
230.5235	-316.8000	-6.3858
231.5239	-316.8000	-6.3862
232.5257	-316.8000	-6.3826
233.5278	-316.8000	-6.3861
234.5331	-316.8000	-6.3825
235.5350	-316.8000	-6.3804
236.5375	-316.8000	-6.3798
237.5391	-316.8000	-6.3810
238.5418	-316.8000	-6.3798
239.5417	-316.8000	-6.3734
240.5435	-316.8000	-6.3736
241.5450	-316.8000	-6.3743
242.5463	-316.8000	-6.3743
243.5511	-316.8000	-6.3744
244.5517	-316.8000	-6.3741
245.5518	-316.8000	-6.3731
246.5542	-316.8000	-6.3702
247.5569	-316.8000	-6.3703
248.5605	-316.8000	-6.3684
249.5629	-316.8000	-6.3687
250.5642	-316.8000	-6.3726
251.5642	-316.8000	-6.3730
252.5656	-316.8000	-6.3672
253.5697	-316.8000	-6.3621
254.5707	-316.8000	-6.3719
255.5720	-316.8000	-6.3644
256.5722	-316.8000	-6.3666
257.5720	-316.8000	-6.3637
258.5749	-316.8000	-6.3641
259.5757	-316.8000	-6.3644
260.5814	-316.8000	-6.3600
261.5837	-316.8000	-6.3624
262.5878	-316.8000	-6.3596
263.5898	-316.8000	-6.3617
264.5903	-316.8000	-6.3611
265.5920	-316.8000	-6.3559
266.5938	-316.8000	-6.3560
267.5938	-316.8000	-6.3588
268.5983	-316.8000	-6.3560
269.6021	-316.8000	-6.3541
270.6043	-316.8000	-6.3554
271.6272	-314.8850	-6.3537
272.6292	-308.2200	-0.1354
273.6292	-301.5550	1.4056
274.6301	-294.8870	1.4383
275.6329	-288.1850	1.3187
276.6362	-281.4840	1.2378
277.6391	-274.8190	1.1849
278.6422	-268.1190	1.1634
279.6448	-266.8000	1.1866
280.6480	-266.8000	1.1867
281.4494	-266.8000	1.1842