Folder: RRI/Tinius-Olsen_Levitation_force/Measurements (part 3)

File: 20231204_1527YBCOs1_sl9_2.txt
4/12/2023 3:27:49 pm
Time(s)	Displacement(mm)	Force(N)
0.0000	-266.2680	1.0975
1.0430	-266.2680	1.0994
2.0467	-266.2680	1.1000
3.0480	-266.2680	1.0980
4.0487	-266.2680	1.0979
5.0529	-266.2680	1.1028
6.0739	-266.0000	1.1034
7.0740	-266.0000	1.1038
8.0762	-266.0000	1.1038
9.0782	-266.0000	1.1011
10.0796	-266.0000	1.1048
11.0815	-266.1520	1.0908
12.1064	-270.0000	1.0839
13.1089	-270.0000	1.0898
14.1088	-270.0000	1.0863
15.1100	-270.0000	1.0868
16.1108	-270.0000	1.0887
17.1122	-270.0000	1.0853
18.1140	-270.0000	1.0850
19.1155	-270.0000	1.0840
20.1216	-270.0000	1.0860
21.1241	-270.0000	1.0832
22.1270	-270.0000	1.0866
23.1288	-270.0000	1.0837
24.1316	-270.0000	1.0811
25.1342	-270.0000	1.0843
26.1568	-270.5800	1.0626
27.1595	-277.2470	1.0667
28.1615	-283.9460	1.0369
29.1617	-290.6110	0.9763
30.1675	-297.3130	0.8652
31.1708	-303.9780	0.6228
32.1740	-310.6790	0.1087
33.1772	-315.6410	-1.1336
34.1806	-315.6400	-0.8875
35.1839	-315.6400	-0.8271
36.1881	-315.6400	-0.7896
37.1912	-315.6400	-0.7709
38.1924	-315.6400	-0.7496
39.1965	-315.6400	-0.7335
40.1996	-315.6400	-0.7207
41.2037	-315.6400	-0.7077
42.2046	-315.6400	-0.6960
43.2090	-315.6400	-0.6870
44.2116	-315.6400	-0.6795
45.2119	-315.6400	-0.6721
46.2140	-315.6400	-0.6630
47.2161	-315.6400	-0.6579
48.2186	-315.6400	-0.6509
49.2232	-315.6400	-0.6453
50.2244	-315.6400	-0.6412
51.2243	-315.6400	-0.6335
52.2261	-315.6400	-0.6307
53.2297	-315.6400	-0.6240
54.2320	-315.6400	-0.6200
55.2337	-315.6400	-0.6141
56.2360	-315.6400	-0.6124
57.2398	-315.6400	-0.6081
58.2400	-315.6400	-0.6069
59.2413	-315.6400	-0.6002
60.2429	-315.6400	-0.5991
61.2473	-315.6400	-0.5959
62.2491	-315.6400	-0.5926
63.2538	-315.6400	-0.5891
64.2545	-315.6400	-0.5886
65.2545	-315.6400	-0.5842
66.2539	-315.6400	-0.5829
67.2589	-315.6400	-0.5790
68.2623	-315.6400	-0.5761
69.2639	-315.6400	-0.5734
70.2642	-315.6400	-0.5716
71.2657	-315.6400	-0.5687
72.2667	-315.6400	-0.5672
73.2689	-315.6400	-0.5626
74.2694	-315.6400	-0.5608
75.2722	-315.6400	-0.5633
76.2761	-315.6400	-0.5591
77.2789	-315.6400	-0.5575
78.2810	-315.6400	-0.5555
79.2827	-315.6400	-0.5531
80.2847	-315.6400	-0.5513
81.2894	-315.6400	-0.5472
82.2934	-315.6400	-0.5434
83.2954	-315.6400	-0.5447
84.2975	-315.6400	-0.5454
85.2985	-315.6400	-0.5413
86.2985	-315.6400	-0.5398
87.3026	-315.6400	-0.5393
88.3078	-315.6400	-0.5401
89.3103	-315.6400	-0.5358
90.3103	-315.6400	-0.5354
91.3115	-315.6400	-0.5297
92.3124	-315.6400	-0.5288
93.3142	-315.6400	-0.5271
94.3187	-315.6400	-0.5289
95.3221	-315.6400	-0.5266
96.3246	-315.6400	-0.5239
97.3283	-315.6400	-0.5239
98.3300	-315.6400	-0.5256
99.3300	-315.6400	-0.5226
100.3305	-315.6400	-0.5224
101.3345	-315.6400	-0.5214
102.3372	-315.6400	-0.5195
103.3416	-315.6400	-0.5174
104.3466	-315.6400	-0.5167
105.3477	-315.6400	-0.5176
106.3523	-315.6400	-0.5158
107.3525	-315.6400	-0.5128
108.3548	-315.6400	-0.5099
109.3564	-315.6400	-0.5083
110.3593	-315.6400	-0.5101
111.3625	-315.6400	-0.5093
112.3645	-315.6400	-0.5079
113.3679	-315.6400	-0.5044
114.3711	-315.6400	-0.5059
115.3738	-315.6400	-0.5020
116.3767	-315.6400	-0.5030
117.3777	-315.6400	-0.5029
118.3819	-315.6400	-0.5006
119.3877	-315.6400	-0.5022
120.3914	-315.6400	-0.5009
121.3956	-315.6400	-0.4990
122.3959	-315.6400	-0.4964
123.3971	-315.6400	-0.4955
124.3974	-315.6400	-0.4959
125.4017	-315.6400	-0.4931
126.4080	-315.6400	-0.4929
127.4085	-315.6400	-0.4921
128.4101	-315.6400	-0.4906
129.4110	-315.6400	-0.4933
130.4128	-315.6400	-0.4915
131.4146	-315.6400	-0.4879
132.4182	-315.6400	-0.4860
133.4193	-315.6400	-0.4860
134.4206	-315.6400	-0.4851
135.4220	-315.6400	-0.4853
136.4234	-315.6400	-0.4861
137.4249	-315.6400	-0.4824
138.4281	-315.6400	-0.4850
139.4293	-315.6400	-0.4784
140.4338	-315.6400	-0.4821
141.4350	-315.6400	-0.4826
142.4347	-315.6400	-0.4806
143.4373	-315.6400	-0.4814
144.4383	-315.6400	-0.4815
145.4399	-315.6400	-0.4794
146.4438	-315.6400	-0.4765
147.4457	-315.6400	-0.4768
148.4513	-315.6400	-0.4725
149.4530	-315.6400	-0.4741
150.4554	-315.6400	-0.4734
151.4553	-315.6400	-0.4757
152.4576	-315.6400	-0.4720
153.4602	-315.6400	-0.4697
154.4610	-315.6400	-0.4728
155.4630	-315.6400	-0.4703
156.4671	-315.6400	-0.4707
157.4693	-315.6400	-0.4706
158.4720	-315.6400	-0.4716
159.4744	-315.6400	-0.4706
160.4750	-315.6400	-0.4690
161.4799	-315.6400	-0.4699
162.4830	-315.6400	-0.4691
163.4831	-315.6400	-0.4657
164.4857	-315.6400	-0.4655
165.4890	-315.6400	-0.4658
166.4907	-315.6400	-0.4646
167.4948	-315.6400	-0.4629
168.4971	-315.6400	-0.4606
169.4990	-315.6400	-0.4613
170.5008	-315.6400	-0.4619
171.5055	-315.6400	-0.4594
172.5076	-315.6400	-0.4593
173.5084	-315.6400	-0.4570
174.5093	-315.6400	-0.4574
175.5115	-315.6400	-0.4567
176.5128	-315.6400	-0.4548
177.5155	-315.6400	-0.4535
178.5165	-315.6400	-0.4574
179.5183	-315.6400	-0.4528
180.5212	-315.6400	-0.4516
181.5233	-315.6400	-0.4532
182.5270	-315.6400	-0.4534
183.5274	-315.6400	-0.4500
184.5277	-315.6400	-0.4489
185.5295	-315.6400	-0.4471
186.5322	-315.6400	-0.4512
187.5354	-315.6400	-0.4509
188.5360	-315.6400	-0.4435
189.5386	-315.6400	-0.4465
190.5404	-315.6400	-0.4464
191.5426	-315.6400	-0.4446
192.5442	-315.6400	-0.4447
193.5482	-315.6400	-0.4467
194.5510	-315.6400	-0.4430
195.5531	-315.6400	-0.4441
196.5556	-315.6400	-0.4437
197.5554	-315.6400	-0.4430
198.5556	-315.6400	-0.4514
199.5604	-315.6400	-0.4478
200.5606	-315.3520	-0.4431
201.5643	-313.3410	1.4967
202.5644	-311.3410	1.8212
203.5653	-309.3420	1.8418
204.5681	-307.3430	1.7762
205.5709	-305.3320	1.6805
206.5744	-303.3210	1.5847
207.5757	-301.3220	1.4959
208.5775	-299.3220	1.4203
209.5782	-297.3120	1.3570
210.5830	-295.3120	1.3072
211.5835	-293.3110	1.2686
212.5919	-291.5790	1.2341
213.5927	-291.5800	1.2200
214.5947	-291.5800	1.2152
215.5986	-291.5800	1.2158
216.6004	-291.5800	1.2147
217.6036	-291.5800	1.2144
218.6086	-291.5800	1.2122
219.6113	-291.5800	1.2144
220.6153	-289.8550	1.2099
221.6192	-287.8450	1.1950
222.6205	-285.8450	1.1796
223.6236	-283.8350	1.1678
224.6287	-281.8250	1.1535
225.6320	-279.8140	1.1470
226.6317	-277.8150	1.1395
227.6328	-275.8150	1.1333
228.6355	-273.8050	1.1296
229.6396	-271.8040	1.1287
230.6440	-269.7950	1.1302
231.6479	-267.7850	1.1378
232.6499	-265.7850	1.1457
233.6515	-263.7750	1.1629
234.6517	-261.7760	1.1907
235.6536	-259.7760	1.2213
236.6561	-257.7660	1.2546
237.6574	-255.7660	1.2844
238.6565	-253.7660	1.3096
239.6597	-251.7670	1.3432
240.6640	-249.7570	1.3693
241.6638	-247.7560	1.3766
242.6638	-245.7570	1.3795
243.6668	-243.7470	1.3837
244.6697	-241.7360	1.3866
245.6704	-239.7470	1.3893
246.6718	-237.7370	1.3933
247.6795	-235.7170	1.3931
248.6839	-233.7170	1.3932
249.6866	-231.7070	1.3922
250.6912	-229.6970	1.3917
251.6939	-227.6970	1.3930
252.6963	-225.6880	1.3918
253.6975	-223.6880	1.3892
254.6993	-221.6780	1.3868
255.7006	-219.6790	1.3882
256.7015	-217.6780	1.3876
257.7049	-218.3070	1.3872
258.7069	-220.3070	1.3874
259.7083	-222.3070	1.3881
260.7091	-224.3170	1.3892
261.7123	-226.4900	1.3863
262.7131	-236.5350	1.3874
263.7173	-246.5360	1.3879
264.7200	-256.5850	1.3650
265.7223	-266.6340	1.2292
266.7242	-267.3350	1.1350
267.7262	-267.3350	1.1344
268.7341	-267.3350	1.1335
269.7364	-267.3350	1.1360
270.7383	-267.3350	1.1365
271.7423	-267.3350	1.1402
272.7441	-267.3350	1.1342
273.7462	-267.3350	1.1327
274.7484	-267.3350	1.1392
275.0487	-267.3350	1.1353

File: 20231204_1536YBCOs1_sl9_3.txt
4/12/2023 3:36:53 pm
Time(s)	Displacement(mm)	Force(N)
0.0000	-267.3350	1.1533
0.8445	-267.3350	1.1577
1.6460	-267.3350	1.1575
2.4480	-267.3350	1.1550
3.2496	-267.3350	1.1554
4.0514	-267.3350	1.1561
4.8508	-267.1990	1.1748
5.6723	-267.0000	1.1595
6.4732	-267.0000	1.1624
7.2737	-267.0000	1.1624
8.0741	-267.0000	1.1599
8.8740	-267.0000	1.1615
9.6740	-267.0000	1.1613
10.4744	-267.0000	1.1632
11.2757	-267.0000	1.1578
12.0792	-267.0000	1.1608
12.8808	-267.0000	1.1667
13.7029	-269.5780	1.1332
14.5079	-270.0000	1.1309
15.3107	-270.0000	1.1303
16.1125	-270.0000	1.1322
16.9138	-270.0000	1.1331
17.7168	-270.0000	1.1340
18.5196	-270.0000	1.1336
19.3238	-270.0000	1.1347
20.1264	-270.0000	1.1331
20.9291	-270.0000	1.1300
21.7320	-270.0000	1.1292
22.5537	-271.8970	1.1201
23.3574	-277.2330	1.1164
24.1594	-282.6010	1.1165
24.9604	-287.9380	1.1054
25.7616	-293.2700	1.0761
26.5619	-298.6040	0.9899
27.3638	-303.9710	0.8074
28.1658	-309.3030	0.4387
28.9701	-314.6710	-0.3066
29.7724	-315.6400	-0.8586
30.5737	-315.6400	-0.7840
31.3740	-315.6400	-0.7462
32.1770	-315.6400	-0.7256
32.9803	-315.6400	-0.7085
33.7818	-315.6400	-0.6918
34.5820	-315.6400	-0.6794
35.3840	-315.6400	-0.6715
36.1852	-315.6400	-0.6623
36.9866	-315.6400	-0.6567
37.7882	-315.6400	-0.6501
38.5909	-315.6400	-0.6451
39.3922	-315.6400	-0.6389
40.1929	-315.6400	-0.6329
40.9941	-315.6400	-0.6291
41.7952	-315.6400	-0.6236
42.5982	-315.6400	-0.6214
43.3980	-315.6400	-0.6162
44.1990	-315.6400	-0.6141
45.0038	-315.6400	-0.6071
45.8039	-315.6400	-0.6061
46.6044	-315.6400	-0.6003
47.4045	-315.6400	-0.5984
48.2068	-315.6400	-0.5911
49.0062	-315.6400	-0.5938
49.8082	-315.6400	-0.5914
50.6119	-315.6400	-0.5915
51.4111	-315.6400	-0.5852
52.2136	-315.6400	-0.5824
53.0141	-315.6400	-0.5811
53.8189	-315.6400	-0.5794
54.6192	-315.6400	-0.5762
55.4202	-315.6400	-0.5742
56.2220	-315.6400	-0.5723
57.0226	-315.6400	-0.5701
57.8227	-315.6400	-0.5690
58.6236	-315.6400	-0.5661
59.4244	-315.6400	-0.5664
60.2274	-315.6400	-0.5625
61.0282	-315.6400	-0.5617
61.8312	-315.6400	-0.5607
62.6327	-315.6400	-0.5560
63.4344	-315.6400	-0.5571
64.2368	-315.6400	-0.5571
65.0363	-315.6400	-0.5530
65.8377	-315.6400	-0.5511
66.6413	-315.6400	-0.5524
67.4422	-315.6400	-0.5510
68.2444	-315.6400	-0.5474
69.0472	-315.6400	-0.5496
69.8498	-315.6400	-0.5465
70.6517	-315.6400	-0.5441
71.4523	-315.6400	-0.5406
72.2543	-315.6400	-0.5400
73.0566	-315.6400	-0.5411
73.8585	-315.6400	-0.5425
74.6596	-315.6400	-0.5387
75.4626	-315.6400	-0.5378
76.2645	-315.6400	-0.5378
77.0666	-315.6400	-0.5367
77.8668	-315.6400	-0.5328
78.6686	-315.6400	-0.5314
79.4696	-315.6400	-0.5304
80.2705	-315.6400	-0.5306
81.0722	-315.6400	-0.5276
81.8734	-315.6400	-0.5281
82.6754	-315.6400	-0.5296
83.4782	-315.6400	-0.5275
84.2798	-315.6400	-0.5282
85.0821	-315.6400	-0.5257
85.8822	-315.6400	-0.5242
86.6841	-315.6400	-0.5238
87.4840	-315.6400	-0.5208
88.2863	-315.6400	-0.5206
89.0860	-315.6400	-0.5197
89.8866	-315.6400	-0.5189
90.6890	-315.6400	-0.5201
91.4918	-315.6400	-0.5178
92.2924	-315.6400	-0.5160
93.0979	-315.6400	-0.5136
93.9016	-315.6400	-0.5148
94.7041	-315.6400	-0.5137
95.5048	-315.6400	-0.5080
96.3088	-315.6400	-0.5134
97.1106	-315.6400	-0.5106
97.9110	-315.6400	-0.5134
98.7129	-315.6400	-0.5084
99.5125	-315.6400	-0.5065
100.3149	-315.6400	-0.5060
101.1169	-315.6400	-0.5068
101.9189	-315.6400	-0.5063
102.7202	-315.6400	-0.5064
103.5215	-315.6400	-0.5061
104.3235	-315.6400	-0.5043
105.1241	-315.6400	-0.5032
105.9236	-315.6400	-0.5031
106.7264	-315.6400	-0.5025
107.5274	-315.6400	-0.5035
108.3287	-315.6400	-0.4985
109.1308	-315.6400	-0.4998
109.9333	-315.6400	-0.5011
110.7330	-315.6400	-0.5032
111.5348	-315.6400	-0.5001
112.3356	-315.6400	-0.4977
113.1385	-315.6400	-0.4978
113.9424	-315.6400	-0.4980
114.7418	-315.6400	-0.4990
115.5450	-315.6400	-0.4961
116.3470	-315.6400	-0.4941
117.1470	-315.6400	-0.4922
117.9476	-315.6400	-0.4917
118.7492	-315.6400	-0.4943
119.5520	-315.6400	-0.4899
120.3534	-315.6400	-0.4932
121.1564	-315.6400	-0.4939
121.9567	-315.6400	-0.4952
122.7577	-315.6400	-0.4894
123.5585	-315.6400	-0.4917
124.3595	-315.6400	-0.4903
125.1638	-315.6400	-0.4907
125.9666	-315.6400	-0.4910
126.7694	-315.6400	-0.4874
127.5737	-315.6400	-0.4850
128.3798	-315.6400	-0.4858
129.1829	-315.6400	-0.4886
129.9844	-315.6400	-0.4885
130.7848	-315.6400	-0.4887
131.5848	-315.6400	-0.4854
132.3849	-315.6400	-0.4854
133.1855	-315.6400	-0.4849
133.9885	-315.6400	-0.4814
134.7890	-315.6400	-0.4803
135.5908	-315.6400	-0.4816
136.3988	-315.6400	-0.4811
137.2016	-315.6400	-0.4808
138.0018	-315.6400	-0.4808
138.8022	-315.6400	-0.4786
139.6033	-315.6400	-0.4780
140.4040	-315.6400	-0.4802
141.2052	-315.6400	-0.4782
142.0087	-315.6400	-0.4767
142.8109	-315.6400	-0.4769
143.6146	-315.6400	-0.4738
144.4171	-315.6400	-0.4759
145.2192	-315.6400	-0.4727
146.0208	-315.6400	-0.4751
146.8230	-315.6400	-0.4722
147.6253	-315.6400	-0.4753
148.4252	-315.6400	-0.4727
149.2284	-315.6400	-0.4723
150.0324	-315.6400	-0.4717
150.8349	-315.6400	-0.4702
151.6379	-315.6400	-0.4705
152.4389	-315.6400	-0.4710
153.2411	-315.6400	-0.4710
154.0416	-315.6400	-0.4685
154.8413	-315.6400	-0.4719
155.6438	-315.6400	-0.4712
156.4474	-315.6400	-0.4691
157.2471	-315.6400	-0.4723
158.0491	-315.6400	-0.4683
158.8530	-315.6400	-0.4666
159.6548	-315.6400	-0.4693
160.4553	-315.6400	-0.4676
161.2570	-315.6400	-0.4669
162.0571	-315.6400	-0.4645
162.8571	-315.6400	-0.4615
163.6599	-315.6400	-0.4649
164.4618	-315.6400	-0.4613
165.2643	-315.6400	-0.4640
166.0661	-315.6400	-0.4619
166.8686	-315.6400	-0.4637
167.6701	-315.6400	-0.4631
168.4731	-315.6400	-0.4634
169.2747	-315.6400	-0.4656
170.0769	-315.6400	-0.4608
170.8804	-315.6400	-0.4604
171.6835	-315.6400	-0.4597
172.4852	-315.6400	-0.4622
173.2911	-315.6400	-0.4620
174.0926	-315.6400	-0.4610
174.8923	-315.6400	-0.4583
175.6947	-315.6400	-0.4594
176.4967	-315.6400	-0.4578
177.2990	-315.6400	-0.4556
178.0988	-315.6400	-0.4569
178.9035	-315.6400	-0.4575
179.7090	-315.6400	-0.4579
180.5118	-315.6400	-0.4581
181.3136	-315.6400	-0.4551
182.1172	-315.6400	-0.4514
182.9207	-315.6400	-0.4539
183.7234	-315.6400	-0.4530
184.5269	-315.6400	-0.4542
185.3277	-315.6400	-0.4531
186.1299	-315.6400	-0.4528
186.9308	-315.6400	-0.4537
187.7318	-315.6400	-0.4551
188.5373	-315.6400	-0.4537
189.3387	-315.6400	-0.4536
190.1398	-315.6400	-0.4513
190.9408	-315.6400	-0.4497
191.7452	-315.6400	-0.4499
192.5455	-315.6400	-0.4465
193.3454	-315.6400	-0.4486
194.1478	-315.6400	-0.4479
194.9514	-315.6400	-0.4500
195.7542	-315.6400	-0.4494
196.5546	-315.6400	-0.4494
197.3581	-315.6400	-0.4465
198.1596	-315.6400	-0.4487
198.9619	-315.6400	-0.4456
199.7622	-315.6400	-0.4483
200.5628	-315.6400	-0.4447
201.3637	-315.6400	-0.4468
202.1655	-315.6400	-0.4437
202.9684	-315.6400	-0.4449
203.7694	-315.6400	-0.4431
204.5733	-315.6400	-0.4412
205.3757	-315.6400	-0.4407
206.1797	-315.6400	-0.4407
206.9820	-315.6400	-0.4419
207.7832	-315.6400	-0.4413
208.5851	-315.6400	-0.4416
209.3857	-315.6400	-0.4409
210.1902	-315.6400	-0.4403
210.9920	-315.6400	-0.4406
211.7928	-315.6400	-0.4410
212.5965	-315.6400	-0.4410
213.3995	-315.6400	-0.4415
214.2012	-315.6400	-0.4418
215.0008	-315.6400	-0.4391
215.8039	-315.6400	-0.4369
216.6059	-315.6400	-0.4376
217.4092	-315.6400	-0.4379
218.2126	-315.6400	-0.4396
219.0166	-315.6400	-0.4399
219.8175	-315.6400	-0.4390
220.6213	-315.6400	-0.4395
221.4239	-315.6400	-0.4389
222.2256	-315.6400	-0.4342
223.0300	-315.6400	-0.4377
223.8309	-315.6400	-0.4375
224.6307	-315.6400	-0.4361

File: 20231204_1541YBCOs1_sl9_4.txt
4/12/2023 3:41:07 pm
Time(s)	Displacement(mm)	Force(N)
0.0000	-315.4950	0.1475
0.9191	-309.7480	1.9050
1.8215	-303.7290	1.5896
2.7224	-297.7480	1.3627
3.6252	-291.6980	1.2417
4.5283	-285.7140	1.1797
5.4349	-279.6650	1.1516
6.3415	-273.6120	1.1503
7.2418	-267.5940	1.2070
8.1438	-265.6390	1.2304
9.0442	-265.6400	1.2292
9.9443	-265.6400	1.2283
10.8464	-265.6400	1.2298
11.7498	-265.6400	1.2310
12.6514	-265.6400	1.2268
13.5560	-265.6400	1.2260
14.4555	-265.6400	1.2272
15.3576	-265.6400	1.2293
16.2580	-265.7680	1.2143
17.1816	-271.5520	1.1466
18.0829	-277.5700	1.1289
18.9846	-283.5850	1.1274
19.8857	-289.5690	1.1227
20.7881	-295.5850	1.0829
21.6921	-301.6030	0.9194
22.5914	-307.6230	0.5853
23.4918	-312.9550	-0.1543
24.3920	-315.6400	-0.8333
25.2935	-315.6400	-0.7542
26.1954	-315.6400	-0.7210
27.1012	-315.6400	-0.7006
28.0063	-315.6400	-0.6818
28.9068	-315.6400	-0.6726
29.8088	-315.6400	-0.6614
30.7137	-315.6400	-0.6534
31.6155	-315.6400	-0.6470
32.5155	-315.6400	-0.6406
33.4196	-315.6400	-0.6325
34.3205	-315.6400	-0.6243
35.2231	-315.6400	-0.6230
36.1263	-315.6400	-0.6170
37.0319	-315.6400	-0.6116
37.9341	-315.6400	-0.6095
38.8375	-315.6400	-0.6052
39.7398	-315.6400	-0.6011
40.6414	-315.6400	-0.5989
41.5423	-315.6400	-0.5962
42.4424	-315.6400	-0.5947
43.3450	-315.6400	-0.5915
44.2466	-315.6400	-0.5900
45.1476	-315.6400	-0.5871
46.0503	-315.6400	-0.5829
46.9497	-315.6400	-0.5789
47.8522	-315.6400	-0.5775
48.7547	-315.6400	-0.5767
49.6579	-315.6400	-0.5753
50.5614	-315.6400	-0.5733
51.4652	-315.6400	-0.5705
52.3704	-315.6400	-0.5713
53.2727	-315.6400	-0.5668
54.1754	-315.6400	-0.5689
55.0757	-315.6400	-0.5645
55.9756	-315.6400	-0.5630
56.8777	-315.6400	-0.5544
57.7797	-315.6400	-0.5580
58.6821	-315.6400	-0.5580
59.5874	-315.6400	-0.5559
60.4903	-315.6400	-0.5547
61.3904	-315.6400	-0.5535
62.2927	-315.6400	-0.5523
63.1946	-315.6400	-0.5514
64.0965	-315.6400	-0.5498
64.9998	-315.6400	-0.5472
65.9019	-315.6400	-0.5480
66.8055	-315.6400	-0.5474
67.7062	-315.6400	-0.5425
68.6078	-315.6400	-0.5418
69.5095	-315.6400	-0.5404
70.4106	-315.6400	-0.5417
71.3119	-315.6400	-0.5414
72.2138	-315.6400	-0.5397
73.1175	-315.6400	-0.5400
74.0217	-315.6400	-0.5376
74.9247	-315.6400	-0.5387
75.8258	-315.6400	-0.5382
76.7269	-315.6400	-0.5357
77.6279	-315.6400	-0.5332
78.5302	-315.6400	-0.5334
79.4322	-315.6400	-0.5296
80.3356	-315.6400	-0.5317
81.2406	-315.6400	-0.5271
82.1422	-315.6400	-0.5268
83.0444	-315.6400	-0.5287
83.9467	-315.6400	-0.5234
84.8478	-315.6400	-0.5264
85.7483	-315.6400	-0.5238
86.6506	-315.6400	-0.5230
87.5513	-315.6400	-0.5228
88.4540	-315.6400	-0.5215
89.3568	-315.6400	-0.5201
90.2581	-315.6400	-0.5187
91.1599	-315.6400	-0.5181
92.0603	-315.6400	-0.5183
92.9637	-315.6400	-0.5141
93.8668	-315.6400	-0.5165
94.7717	-315.6400	-0.5175
95.6741	-315.6400	-0.5166
96.5799	-315.6400	-0.5125
97.4804	-315.6400	-0.5153
98.3806	-315.6400	-0.5139
99.2820	-315.6400	-0.5134
100.1849	-315.6400	-0.5103
101.0881	-315.6400	-0.5107
101.9897	-315.6400	-0.5095
102.8936	-315.6400	-0.5103
103.7953	-315.6400	-0.5089
104.6967	-315.6400	-0.5101
105.5986	-315.6400	-0.5070
106.5006	-315.6400	-0.5091
107.4042	-315.6400	-0.5069
108.3056	-315.6400	-0.5080
109.2090	-315.6400	-0.5056
110.1092	-315.6400	-0.5066
111.0112	-315.6400	-0.5081
111.9127	-315.6400	-0.5020
112.8149	-315.6400	-0.5026
113.7159	-315.6400	-0.5052
114.6192	-315.6400	-0.5044
115.5236	-315.6400	-0.5024
116.4264	-315.6400	-0.5055
117.3292	-315.6400	-0.5027
118.2308	-315.6400	-0.5006
119.1309	-315.6400	-0.4994
120.0313	-315.6400	-0.4971
120.9324	-315.6400	-0.4969
121.8340	-315.6400	-0.4982
122.7401	-315.6400	-0.4974
123.6440	-315.6400	-0.4972
124.5478	-315.6400	-0.4964
125.4510	-315.6400	-0.4956
126.3521	-315.6400	-0.4916
127.2545	-315.6400	-0.4973
128.1567	-315.6400	-0.4937
129.0587	-315.6400	-0.4951
129.9605	-315.6400	-0.4957
130.8647	-315.6400	-0.4898
131.7687	-315.6400	-0.4931
132.6719	-315.6400	-0.4949
133.5756	-315.6400	-0.4864
134.4768	-315.6400	-0.4913
135.3810	-315.6400	-0.4891
136.2812	-315.6400	-0.4902
137.1824	-315.6400	-0.4899
138.0856	-315.6400	-0.4868
138.9887	-315.6400	-0.4893
139.8916	-315.6400	-0.4884
140.7929	-315.6400	-0.4877
141.6970	-315.6400	-0.4873
142.5988	-315.6400	-0.4882
143.5011	-315.6400	-0.4881
144.4043	-315.6400	-0.4903
145.3072	-315.6400	-0.4858
146.2094	-315.6400	-0.4859
147.1121	-315.6400	-0.4871
148.0132	-315.6400	-0.4872
148.9174	-315.6400	-0.4855
149.8180	-315.6400	-0.4845
150.7210	-315.6400	-0.4871
151.6227	-315.6400	-0.4839
152.5246	-315.6400	-0.4848
153.4268	-315.6400	-0.4800
154.3309	-315.6400	-0.4815
155.2340	-315.6400	-0.4837
156.1361	-315.6400	-0.4827
157.0394	-315.6400	-0.4804
157.9414	-315.6400	-0.4814
158.8432	-315.6400	-0.4787
159.7464	-315.6400	-0.4801
160.6477	-315.6400	-0.4793
161.5517	-315.6400	-0.4812
162.4556	-315.6400	-0.4773
163.3592	-315.6400	-0.4778
164.2601	-315.6400	-0.4765
165.1628	-315.6400	-0.4780
166.0654	-315.6400	-0.4773
166.9684	-315.6400	-0.4754
167.8712	-315.6400	-0.4749
168.7722	-315.6400	-0.4781
169.6742	-315.6400	-0.4759
170.5766	-315.6400	-0.4744
171.4798	-315.6400	-0.4767
172.3810	-315.6400	-0.4737
173.2839	-315.6400	-0.4737
174.1838	-315.6400	-0.4733
175.0880	-315.6400	-0.4753
175.9926	-315.6400	-0.4756
176.8967	-315.6400	-0.4749
177.8005	-315.6400	-0.4732
178.7041	-315.6400	-0.4719
179.6060	-315.6400	-0.4733
180.5079	-315.6400	-0.4713
181.4111	-315.6400	-0.4708
182.3131	-315.6400	-0.4726
183.2174	-315.6400	-0.4719
184.1194	-315.6400	-0.4683
185.0228	-315.6400	-0.4716
185.9254	-315.6400	-0.4687
186.8296	-315.6400	-0.4673
187.7322	-315.6400	-0.4675
188.6343	-315.6400	-0.4673
189.5391	-315.6400	-0.4685
190.4393	-315.6400	-0.4640
191.3435	-315.6400	-0.4658
192.2460	-315.6400	-0.4663
193.1490	-315.6400	-0.4673
194.0544	-315.6400	-0.4686
194.9582	-315.6400	-0.4677
195.8629	-315.6400	-0.4652
196.7677	-315.6400	-0.4672
197.6713	-315.6400	-0.4648
198.5799	-315.6400	-0.4668
199.4827	-315.6400	-0.4650
200.3885	-315.6400	-0.4650
201.2896	-315.6400	-0.4648
202.1928	-315.6400	-0.4637
203.0943	-315.6400	-0.4652
203.9985	-315.6400	-0.4643
204.8995	-315.6400	-0.4631
205.7997	-315.6400	-0.4648
206.6994	-315.6400	-0.4625
207.6018	-315.6400	-0.4640
208.5061	-315.6400	-0.4627
209.4107	-315.6400	-0.4643
210.3120	-315.6400	-0.4635
211.2163	-315.6400	-0.4633
212.1189	-315.6400	-0.4622
213.0204	-315.6400	-0.4628
213.9255	-315.6400	-0.4610
214.8291	-315.6400	-0.4590
215.7322	-315.6400	-0.4582
216.6379	-315.6400	-0.4626
217.5420	-315.6400	-0.4608
218.4449	-315.6400	-0.4595
219.3474	-315.6400	-0.4597
220.2496	-315.6400	-0.4596
221.1552	-315.6400	-0.4580
222.0567	-315.6400	-0.4577
222.9566	-315.6400	-0.4584
223.8575	-315.6400	-0.4548
224.7602	-315.6400	-0.4606
225.6646	-315.6400	-0.4574
226.5683	-315.6400	-0.4566
227.4739	-315.6400	-0.4572
228.3771	-315.6400	-0.4602
229.2810	-315.6400	-0.4550
230.1818	-315.6400	-0.4589
231.0848	-315.6400	-0.4601
231.9869	-315.6400	-0.4538
232.9092	-311.7400	-0.4500
233.8115	-305.7240	1.9318
234.7135	-299.7080	1.6191
235.6181	-293.6930	1.3797
236.5204	-287.6410	1.2484
237.4220	-281.6590	1.1836
238.3236	-275.6440	1.1569
239.2264	-269.6280	1.1577
240.1257	-265.6390	1.2371
241.0289	-265.6400	1.2680
241.9297	-265.6400	1.2672
242.8334	-265.6400	1.2650
243.7364	-265.6400	1.2650
244.6375	-265.6400	1.2649
245.5440	-265.6400	1.2626
246.4469	-265.6400	1.2649
247.3475	-265.6400	1.2633
248.2487	-265.6400	1.2649
249.1498	-265.6400	1.2655
249.6520	-265.6400	1.2637