Folder: RRI/Tinius-Olsen_Levitation_force/Measurements (part 5)

File: 20231204_1649GDBCOs2_sl6_3.txt
4/12/2023 4:49:00 pm
Time(s)	Displacement(mm)	Force(N)
0.0000	-266.9280	1.1656
0.4203	-269.3570	1.1559
0.8213	-272.0230	1.1571
1.2233	-274.6890	1.1613
1.6255	-277.3900	1.1655
2.0272	-280.0550	1.1784
2.4276	-282.7210	1.1943
2.8271	-285.3870	1.2095
3.2281	-288.0530	1.2344
3.6294	-290.7590	1.2549
4.0306	-293.4240	1.2723
4.4317	-296.0900	1.2900
4.8343	-298.7910	1.2767
5.2350	-301.4600	1.2319
5.6358	-304.1250	1.0794
6.0376	-306.7910	0.7303
6.4373	-309.4570	-0.0212
6.8389	-312.1580	-1.4796
7.2414	-314.8230	-4.1561
7.6421	-316.8010	-6.9442
8.0424	-316.8000	-6.8063
8.4433	-316.8000	-6.7543
8.8439	-316.8000	-6.7211
9.2433	-316.8000	-6.7000
9.6461	-316.8000	-6.6818
10.0461	-316.8000	-6.6660
10.4473	-316.8000	-6.6538
10.8473	-316.8000	-6.6473
11.2485	-316.8000	-6.6344
11.6483	-316.8000	-6.6298
12.0487	-316.8000	-6.6199
12.4487	-316.8000	-6.6145
12.8494	-316.8000	-6.6084
13.2493	-316.8000	-6.6016
13.6509	-316.8000	-6.5998
14.0508	-316.8000	-6.5935
14.4511	-316.8000	-6.5878
14.8517	-316.8000	-6.5810
15.2547	-316.8000	-6.5792
15.6546	-316.8000	-6.5772
16.0559	-316.8000	-6.5698
16.4553	-316.8000	-6.5643
16.8558	-316.8000	-6.5633
17.2562	-316.8000	-6.5604
17.6558	-316.8000	-6.5524
18.0553	-316.8000	-6.5550
18.4567	-316.8000	-6.5501
18.8571	-316.8000	-6.5501
19.2573	-316.8000	-6.5484
19.6599	-316.8000	-6.5431
20.0596	-316.8000	-6.5414
20.4616	-316.8000	-6.5381
20.8614	-316.8000	-6.5407
21.2637	-316.8000	-6.5335
21.6648	-316.8000	-6.5292
22.0665	-316.8000	-6.5310
22.4670	-316.8000	-6.5266
22.8675	-316.8000	-6.5237
23.2678	-316.8000	-6.5211
23.6698	-316.8000	-6.5202
24.0696	-316.8000	-6.5170
24.4695	-316.8000	-6.5145
24.8710	-316.8000	-6.5110
25.2715	-316.8000	-6.5124
25.6719	-316.8000	-6.5094
26.0736	-316.8000	-6.5080
26.4756	-316.8000	-6.5073
26.8771	-316.8000	-6.5069
27.2780	-316.8000	-6.5035
27.6791	-316.8000	-6.5041
28.0788	-316.8000	-6.5015
28.4794	-316.8000	-6.5002
28.8794	-316.8000	-6.4987
29.2794	-316.8000	-6.4975
29.6795	-316.8000	-6.4941
30.0795	-316.8000	-6.4940
30.4823	-316.8000	-6.4913
30.8815	-316.8000	-6.4933
31.2831	-316.8000	-6.4885
31.6827	-316.8000	-6.4896
32.0844	-316.8000	-6.4902
32.4846	-316.8000	-6.4843
32.8873	-316.8000	-6.4842
33.2865	-316.8000	-6.4825
33.6870	-316.8000	-6.4804
34.0877	-316.8000	-6.4833
34.4873	-316.8000	-6.4820
34.8883	-316.8000	-6.4786
35.2875	-316.8000	-6.4840
35.6887	-316.8000	-6.4799
36.0900	-316.8000	-6.4786
36.4897	-316.8000	-6.4735
36.8923	-316.8000	-6.4733
37.2919	-316.8000	-6.4758
37.6941	-316.8000	-6.4711
38.0941	-316.8000	-6.4695
38.4966	-316.8000	-6.4702
38.8981	-316.8000	-6.4657
39.2992	-316.8000	-6.4650
39.7028	-316.8000	-6.4661
40.1027	-316.8000	-6.4671
40.5026	-316.8000	-6.4628
40.9049	-316.8000	-6.4659
41.3050	-316.8000	-6.4602
41.7066	-316.8000	-6.4584
42.1083	-316.8000	-6.4581
42.5092	-316.8000	-6.4578
42.9093	-316.8000	-6.4579
43.3093	-316.8000	-6.4566
43.7090	-316.8000	-6.4529
44.1093	-316.8000	-6.4582
44.5096	-316.8000	-6.4548
44.9112	-316.8000	-6.4547
45.3132	-316.8000	-6.4536
45.7133	-316.8000	-6.4525
46.1153	-316.8000	-6.4523
46.5172	-316.8000	-6.4499
46.9166	-316.8000	-6.4486
47.3175	-316.8000	-6.4500
47.7178	-316.8000	-6.4466
48.1188	-316.8000	-6.4494
48.5198	-316.8000	-6.4461
48.9196	-316.8000	-6.4509
49.3199	-316.8000	-6.4461
49.7199	-316.8000	-6.4488
50.1214	-316.8000	-6.4440
50.5219	-316.8000	-6.4434
50.9215	-316.8000	-6.4404
51.3216	-316.8000	-6.4409
51.7232	-316.8000	-6.4372
52.1236	-316.8000	-6.4388
52.5255	-316.8000	-6.4347
52.9251	-316.8000	-6.4385
53.3251	-316.8000	-6.4345
53.7271	-316.8000	-6.4360
54.1277	-316.8000	-6.4358
54.5277	-316.8000	-6.4334
54.9278	-316.8000	-6.4316
55.3286	-316.8000	-6.4356
55.7296	-316.8000	-6.4321
56.1299	-316.8000	-6.4346
56.5299	-316.8000	-6.4330
56.9297	-316.8000	-6.4292
57.3322	-316.8000	-6.4312
57.7320	-316.8000	-6.4302
58.1351	-316.8000	-6.4324
58.5368	-316.8000	-6.4274
58.9383	-316.8000	-6.4303
59.3399	-316.8000	-6.4279
59.7410	-316.8000	-6.4280
60.1421	-316.8000	-6.4279
60.5435	-316.8000	-6.4272
60.9441	-316.8000	-6.4259
61.3451	-316.8000	-6.4235
61.7464	-316.8000	-6.4220
62.1461	-316.8000	-6.4217
62.5469	-316.8000	-6.4222
62.9495	-316.8000	-6.4235
63.3488	-316.8000	-6.4234
63.7499	-316.8000	-6.4212
64.1505	-316.8000	-6.4198
64.5500	-316.8000	-6.4182
64.9508	-316.8000	-6.4183
65.3521	-316.8000	-6.4193
65.7527	-316.8000	-6.4183
66.1537	-316.8000	-6.4149
66.5556	-316.8000	-6.4146
66.9559	-316.8000	-6.4105
67.3577	-316.8000	-6.4142
67.7582	-316.8000	-6.4127
68.1584	-316.8000	-6.4094
68.5614	-316.8000	-6.4079
68.9618	-316.8000	-6.4110
69.3636	-316.8000	-6.4114
69.7631	-316.8000	-6.4110
70.1636	-316.8000	-6.4093
70.5677	-316.8000	-6.4116
70.9698	-316.8000	-6.4091
71.3701	-316.8000	-6.4048
71.7698	-316.8000	-6.4043
72.1699	-316.8000	-6.4057
72.5713	-316.8000	-6.4066
72.9710	-316.8000	-6.4021
73.3707	-316.8000	-6.4066
73.7735	-316.8000	-6.4046
74.1736	-316.8000	-6.4052
74.5735	-316.8000	-6.4077
74.9749	-316.8000	-6.4026
75.3760	-316.8000	-6.4037
75.7792	-316.8000	-6.4015
76.1790	-316.8000	-6.4040
76.5792	-316.8000	-6.4030
76.9794	-316.8000	-6.3994
77.3788	-316.8000	-6.4016
77.7790	-316.8000	-6.4011
78.1795	-316.8000	-6.3974
78.5801	-316.8000	-6.3980
78.9826	-316.8000	-6.3986
79.3830	-316.8000	-6.3983
79.7818	-316.8000	-6.3972
80.1845	-316.8000	-6.3950
80.5852	-316.8000	-6.3976
80.9869	-316.8000	-6.3898
81.3878	-316.8000	-6.3944
81.7889	-316.8000	-6.3957
82.1918	-316.8000	-6.3943
82.5937	-316.8000	-6.3932
82.9946	-316.8000	-6.3927
83.3940	-316.8000	-6.3915
83.7955	-316.8000	-6.3906
84.1963	-316.8000	-6.3911
84.5984	-316.8000	-6.3922
85.0013	-316.8000	-6.3900
85.4041	-316.8000	-6.3887
85.8051	-316.8000	-6.3892
86.2054	-316.8000	-6.3883
86.6064	-316.8000	-6.3907
87.0062	-316.8000	-6.3883
87.4063	-316.8000	-6.3903
87.8080	-316.8000	-6.3888
88.2112	-316.8000	-6.3847
88.6129	-316.8000	-6.3872
89.0147	-316.8000	-6.3875
89.4146	-316.8000	-6.3867
89.8140	-316.8000	-6.3895
90.2148	-316.8000	-6.3874
90.6157	-316.8000	-6.3849
91.0165	-316.8000	-6.3840
91.4175	-316.8000	-6.3839
91.8175	-316.8000	-6.3836
92.2186	-316.8000	-6.3837
92.6209	-316.8000	-6.3867
93.0226	-316.8000	-6.3789
93.4242	-316.8000	-6.3806
93.8261	-316.8000	-6.3810
94.2278	-316.8000	-6.3823
94.6289	-316.8000	-6.3832
95.0300	-316.8000	-6.3824
95.4302	-316.8000	-6.3803
95.8311	-316.8000	-6.3806
96.2345	-316.8000	-6.3777
96.6371	-316.8000	-6.3772
97.0377	-316.8000	-6.3774
97.4381	-316.8000	-6.3779
97.8393	-316.8000	-6.3759
98.2391	-316.8000	-6.3775
98.6391	-316.8000	-6.3763
99.0418	-316.8000	-6.3739
99.4430	-316.8000	-6.3751
99.8649	-314.8920	-5.0630
100.2649	-312.2260	-1.3298
100.6659	-309.5600	0.3712
101.0651	-306.8940	1.1112
101.4671	-304.2280	1.3989
101.8685	-301.5280	1.4720
102.2687	-298.8620	1.4688
102.6697	-296.1950	1.4260
103.0691	-293.5300	1.3745
103.4700	-290.8610	1.3299
103.8702	-288.1950	1.2863
104.2724	-285.5290	1.2548
104.6729	-282.8630	1.2258
105.0724	-280.1970	1.2044
105.4741	-277.4970	1.1917
105.8744	-274.8310	1.1760
106.2760	-272.1620	1.1640
106.6763	-269.4970	1.1694
107.0792	-266.8370	1.1923
107.4821	-266.7990	1.2077
107.8853	-266.8000	1.2080
108.2880	-266.8000	1.2085
108.6894	-266.8000	1.2073
109.0901	-266.8000	1.2025
109.4909	-266.8000	1.2080

File: 20231204_1651GDBCOs2_sl6_4.txt
4/12/2023 4:51:06 pm
Time(s)	Displacement(mm)	Force(N)
0.0000	-266.9580	1.1887
0.5220	-270.0430	1.1583
1.0225	-273.3580	1.1661
1.5245	-276.7080	1.1728
2.0259	-280.0580	1.1870
2.5267	-283.4080	1.1993
3.0285	-286.7570	1.2300
3.5309	-290.0720	1.2494
4.0330	-293.4240	1.2824
4.5352	-296.7740	1.2976
5.0390	-300.1580	1.2768
5.5390	-303.4760	1.1376
6.0422	-306.8300	0.7432
6.5438	-310.1800	-0.2764
7.0436	-313.4960	-2.6033
7.5441	-316.7790	-6.9477
8.0443	-316.8000	-6.7715
8.5461	-316.8000	-6.7098
9.0490	-316.8000	-6.6735
9.5496	-316.8000	-6.6529
10.0501	-316.8000	-6.6368
10.5515	-316.8000	-6.6216
11.0517	-316.8000	-6.6092
11.5527	-316.8000	-6.5918
12.0527	-316.8000	-6.5864
12.5530	-316.8000	-6.5786
13.0551	-316.8000	-6.5716
13.5552	-316.8000	-6.5638
14.0572	-316.8000	-6.5509
14.5571	-316.8000	-6.5446
15.0572	-316.8000	-6.5392
15.5571	-316.8000	-6.5346
16.0576	-316.8000	-6.5291
16.5590	-316.8000	-6.5305
17.0610	-316.8000	-6.5280
17.5626	-316.8000	-6.5212
18.0645	-316.8000	-6.5158
18.5666	-316.8000	-6.5111
19.0698	-316.8000	-6.5090
19.5730	-316.8000	-6.5052
20.0733	-316.8000	-6.5026
20.5744	-316.8000	-6.4960
21.0761	-316.8000	-6.4971
21.5783	-316.8000	-6.4988
22.0789	-316.8000	-6.4931
22.5782	-316.8000	-6.4894
23.0815	-316.8000	-6.4887
23.5845	-316.8000	-6.4845
24.0846	-316.8000	-6.4795
24.5869	-316.8000	-6.4818
25.0885	-316.8000	-6.4771
25.5900	-316.8000	-6.4758
26.0934	-316.8000	-6.4747
26.5958	-316.8000	-6.4730
27.0980	-316.8000	-6.4725
27.6020	-316.8000	-6.4693
28.1032	-316.8000	-6.4670
28.6074	-316.8000	-6.4614
29.1069	-316.8000	-6.4637
29.6099	-316.8000	-6.4613
30.1126	-316.8000	-6.4648
30.6140	-316.8000	-6.4589
31.1145	-316.8000	-6.4592
31.6153	-316.8000	-6.4553
32.1180	-316.8000	-6.4550
32.6202	-316.8000	-6.4534
33.1201	-316.8000	-6.4498
33.6203	-316.8000	-6.4467
34.1218	-316.8000	-6.4483
34.6234	-316.8000	-6.4451
35.1244	-316.8000	-6.4431
35.6263	-316.8000	-6.4433
36.1283	-316.8000	-6.4391
36.6320	-316.8000	-6.4392
37.1358	-316.8000	-6.4388
37.6367	-316.8000	-6.4403
38.1392	-316.8000	-6.4340
38.6417	-316.8000	-6.4311
39.1433	-316.8000	-6.4360
39.6452	-316.8000	-6.4309
40.1446	-316.8000	-6.4311
40.6446	-316.8000	-6.4278
41.1451	-316.8000	-6.4272
41.6447	-316.8000	-6.4286
42.1447	-316.8000	-6.4244
42.6452	-316.8000	-6.4219
43.1453	-316.8000	-6.4198
43.6464	-316.8000	-6.4203
44.1478	-316.8000	-6.4211
44.6517	-316.8000	-6.4193
45.1530	-316.8000	-6.4150
45.6545	-316.8000	-6.4190
46.1563	-316.8000	-6.4177
46.6581	-316.8000	-6.4170
47.1583	-316.8000	-6.4176
47.6585	-316.8000	-6.4146
48.1608	-316.8000	-6.4124
48.6619	-316.8000	-6.4141
49.1623	-316.8000	-6.4130
49.6643	-316.8000	-6.4096
50.1653	-316.8000	-6.4121
50.6683	-316.8000	-6.4038
51.1709	-316.8000	-6.4034
51.6717	-316.8000	-6.4051
52.1749	-316.8000	-6.4084
52.6754	-316.8000	-6.4057
53.1763	-316.8000	-6.4005
53.6784	-316.8000	-6.4017
54.1809	-316.8000	-6.4004
54.6833	-316.8000	-6.4026
55.1827	-316.8000	-6.4014
55.6849	-316.8000	-6.3989
56.1846	-316.8000	-6.3971
56.6868	-316.8000	-6.3994
57.1883	-316.8000	-6.3981
57.6882	-316.8000	-6.3976
58.1896	-316.8000	-6.3965
58.6903	-316.8000	-6.3955
59.1924	-316.8000	-6.3900
59.6943	-316.8000	-6.3909
60.1949	-316.8000	-6.3911
60.6958	-316.8000	-6.3887
61.2005	-316.8000	-6.3909
61.7016	-316.8000	-6.3881
62.2055	-316.8000	-6.3890
62.7045	-316.8000	-6.3900
63.2048	-316.8000	-6.3820
63.7048	-316.8000	-6.3862
64.2059	-316.8000	-6.3832
64.7069	-316.8000	-6.3849
65.2083	-316.8000	-6.3826
65.7096	-316.8000	-6.3804
66.2106	-316.8000	-6.3835
66.7145	-316.8000	-6.3812
67.2165	-316.8000	-6.3800
67.7166	-316.8000	-6.3815
68.2210	-316.8000	-6.3764
68.7226	-316.8000	-6.3795
69.2245	-316.8000	-6.3798
69.7265	-316.8000	-6.3756
70.2272	-316.8000	-6.3777
70.7295	-316.8000	-6.3761
71.2301	-316.8000	-6.3706
71.7313	-316.8000	-6.3759
72.2316	-316.8000	-6.3742
72.7326	-316.8000	-6.3737
73.2332	-316.8000	-6.3765
73.7337	-316.8000	-6.3748
74.2386	-316.8000	-6.3718
74.7380	-316.8000	-6.3695
75.2398	-316.8000	-6.3707
75.7426	-316.8000	-6.3661
76.2435	-316.8000	-6.3706
76.7437	-316.8000	-6.3700
77.2467	-316.8000	-6.3668
77.7486	-316.8000	-6.3692
78.2516	-316.8000	-6.3676
78.7535	-316.8000	-6.3655
79.2541	-316.8000	-6.3651
79.7549	-316.8000	-6.3695
80.2554	-316.8000	-6.3639
80.7567	-316.8000	-6.3652
81.2599	-316.8000	-6.3620
81.7621	-316.8000	-6.3638
82.2640	-316.8000	-6.3625
82.7650	-316.8000	-6.3655
83.2668	-316.8000	-6.3608
83.7670	-316.8000	-6.3575
84.2706	-316.8000	-6.3589
84.7698	-316.8000	-6.3602
85.2715	-316.8000	-6.3605
85.7712	-316.8000	-6.3606
86.2725	-316.8000	-6.3599
86.7746	-316.8000	-6.3591
87.2755	-316.8000	-6.3607
87.7760	-316.8000	-6.3591
88.2773	-316.8000	-6.3556
88.7773	-316.8000	-6.3596
89.2799	-316.8000	-6.3527
89.7816	-316.8000	-6.3533
90.2811	-316.8000	-6.3517
90.7808	-316.8000	-6.3515
91.2826	-316.8000	-6.3529
91.7827	-316.8000	-6.3501
92.2856	-316.8000	-6.3505
92.7860	-316.8000	-6.3510
93.2893	-316.8000	-6.3519
93.7918	-316.8000	-6.3519
94.2945	-316.8000	-6.3490
94.7970	-316.8000	-6.3468
95.2995	-316.8000	-6.3489
95.8024	-316.8000	-6.3475
96.3042	-316.8000	-6.3475
96.8051	-316.8000	-6.3487
97.3059	-316.8000	-6.3490
97.8070	-316.8000	-6.3457
98.3071	-316.8000	-6.3452
98.8073	-316.8000	-6.3450
99.3103	-316.8000	-6.3428
99.8108	-316.8000	-6.3444
100.3119	-316.8000	-6.3456
100.8150	-316.8000	-6.3436
101.3160	-316.8000	-6.3388
101.8187	-316.8000	-6.3462
102.3206	-316.8000	-6.3412
102.8232	-316.8000	-6.3463
103.3252	-316.8000	-6.3376
103.8252	-316.8000	-6.3446
104.3252	-316.8000	-6.3420
104.8276	-316.8000	-6.3391
105.3276	-316.8000	-6.3401
105.8274	-316.8000	-6.3406
106.3293	-316.8000	-6.3358
106.8308	-316.8000	-6.3345
107.3303	-316.8000	-6.3364
107.8312	-316.8000	-6.3339
108.3337	-316.8000	-6.3376
108.8350	-316.8000	-6.3390
109.3366	-316.8000	-6.3386
109.8377	-316.8000	-6.3372
110.3376	-316.8000	-6.3331
110.8382	-316.8000	-6.3368
111.3398	-316.8000	-6.3311
111.8415	-316.8000	-6.3331
112.3425	-316.8000	-6.3330
112.8449	-316.8000	-6.3277
113.3469	-316.8000	-6.3319
113.8476	-316.8000	-6.3334
114.3691	-315.5590	-6.3326
114.8736	-312.2090	-2.0140
115.3745	-308.8590	0.3833
115.8743	-305.5440	1.2209
116.3758	-302.1940	1.4598
116.8753	-298.8790	1.4778
117.3772	-295.5290	1.4289
117.8779	-292.1770	1.3694
118.3798	-288.8250	1.3135
118.8829	-285.4750	1.2680
119.3842	-282.1260	1.2349
119.8867	-278.8100	1.2049
120.3891	-275.4270	1.1827
120.8902	-272.1090	1.1768
121.3930	-268.7590	1.1837
121.8949	-266.7990	1.2218
122.3958	-266.7990	1.2316
122.8963	-266.8000	1.2308
123.3987	-266.8000	1.2293
123.8996	-266.8000	1.2280
124.3997	-266.8000	1.2311
124.9005	-266.8000	1.2304
125.4015	-266.8000	1.2309
125.9019	-266.8000	1.2281
126.4026	-266.8000	1.2269
126.9048	-266.8000	1.2339
127.0046	-266.8000	1.2313

File: 20231204_1653GDBCOs2_sl6_5.txt
4/12/2023 4:53:29 pm
Time(s)	Displacement(mm)	Force(N)
0.0000	-266.9520	1.2120
1.7449	-278.1730	1.1831
3.4509	-289.5580	1.2550
5.1555	-300.9390	1.2626
6.8641	-312.3210	-1.5212
8.5686	-316.8000	-6.6749
10.2728	-316.8000	-6.5941
11.9780	-316.8000	-6.5557
13.6817	-316.8000	-6.5296
15.3879	-316.8000	-6.5148
17.0919	-316.8000	-6.4974
18.7991	-316.8000	-6.4826
20.5044	-316.8000	-6.4685
22.2086	-316.8000	-6.4620
23.9118	-316.8000	-6.4525
25.6135	-316.8000	-6.4467
27.3172	-316.8000	-6.4375
29.0195	-316.8000	-6.4340
30.7232	-316.8000	-6.4278
32.4321	-316.8000	-6.4242
34.1379	-316.8000	-6.4172
35.8462	-316.8000	-6.4126
37.5508	-316.8000	-6.4031
39.2528	-316.8000	-6.4025
40.9599	-316.8000	-6.4008
42.6651	-316.8000	-6.3965
44.3704	-316.8000	-6.3903
46.0729	-316.8000	-6.3855
47.7752	-316.8000	-6.3849
49.4799	-316.8000	-6.3811
51.1864	-316.8000	-6.3772
52.8888	-316.8000	-6.3749
54.5959	-316.8000	-6.3729
56.2984	-316.8000	-6.3705
58.0051	-316.8000	-6.3691
59.7100	-316.8000	-6.3636
61.4166	-316.8000	-6.3623
63.1196	-316.8000	-6.3598
64.8212	-316.8000	-6.3562
66.5234	-316.8000	-6.3538
68.2254	-316.8000	-6.3514
69.9332	-316.8000	-6.3490
71.6386	-316.8000	-6.3457
73.3425	-316.8000	-6.3432
75.0458	-316.8000	-6.3423
76.7512	-316.8000	-6.3417
78.4582	-316.8000	-6.3391
80.1626	-316.8000	-6.3359
81.8656	-316.8000	-6.3382
83.5692	-316.8000	-6.3328
85.2721	-316.8000	-6.3314
86.9794	-316.8000	-6.3299
88.6829	-316.8000	-6.3288
90.3857	-316.8000	-6.3273
92.0907	-316.8000	-6.3259
93.7944	-316.8000	-6.3218
95.5011	-316.8000	-6.3205
97.2037	-316.8000	-6.3177
98.9115	-316.8000	-6.3188
100.6163	-316.8000	-6.3160
102.3238	-316.8000	-6.3145
104.0271	-316.8000	-6.3117
105.7342	-316.8000	-6.3121
107.4388	-316.8000	-6.3105
109.1434	-316.8000	-6.3100
110.8537	-316.8000	-6.3083
112.5607	-316.8000	-6.3049
114.2645	-316.8000	-6.3050
115.9693	-316.8000	-6.3035
117.6739	-316.8000	-6.3018
119.3795	-316.8000	-6.3015
121.0820	-316.8000	-6.2999
122.7871	-316.8000	-6.2991
124.4885	-316.8000	-6.2945
126.1948	-316.8000	-6.2994
127.8979	-316.8000	-6.2918
129.6036	-316.8000	-6.2931
131.3057	-316.8000	-6.2880
133.0122	-316.8000	-6.2864
134.7171	-316.8000	-6.2885
136.4192	-316.8000	-6.2902
138.1229	-316.8000	-6.2912
139.8273	-316.8000	-6.2819
141.5317	-316.8000	-6.2879
143.2418	-316.8000	-6.2830
144.9465	-316.8000	-6.2816
146.6497	-316.8000	-6.2821
148.3551	-316.8000	-6.2787
150.0625	-316.8000	-6.2820
151.7700	-316.8000	-6.2764
153.4766	-316.8000	-6.2777
155.1774	-316.8000	-6.2813
156.8836	-316.8000	-6.2724
158.5901	-316.8000	-6.2726
160.2929	-316.8000	-6.2762
161.9965	-316.8000	-6.2716
163.7024	-316.8000	-6.2708
165.4089	-316.8000	-6.2678
167.1158	-316.8000	-6.2673
168.8211	-316.8000	-6.2668
170.5270	-316.8000	-6.2658
172.2298	-316.8000	-6.2621
173.9330	-316.8000	-6.2570
175.6403	-316.8000	-6.2617
177.3452	-316.8000	-6.2624
179.0477	-316.8000	-6.2589
180.7510	-316.8000	-6.2627
182.4558	-316.8000	-6.2571
184.1598	-316.8000	-6.2570
185.8612	-316.8000	-6.2580
187.5654	-316.8000	-6.2561
189.2736	-316.8000	-6.2529
190.9792	-316.8000	-6.2553
192.6851	-316.8000	-6.2510
194.3894	-316.8000	-6.2521
196.0933	-316.8000	-6.2509
197.7975	-316.8000	-6.2511
199.5056	-316.8000	-6.2497
201.2127	-316.8000	-6.2502
202.9183	-316.8000	-6.2513
204.6253	-316.8000	-6.2487
206.3293	-316.8000	-6.2443
208.0344	-316.8000	-6.2427
209.7400	-316.8000	-6.2449
211.4402	-316.8000	-6.2451
213.1438	-316.8000	-6.2410
214.8532	-316.8000	-6.2424
216.5611	-316.8000	-6.2439
218.2629	-316.8000	-6.2381
219.9643	-316.8000	-6.2337
221.6695	-316.8000	-6.2378
223.3745	-316.8000	-6.2372
225.0775	-316.8000	-6.2356
226.7826	-316.8000	-6.2391
228.4866	-316.8000	-6.2344
230.1923	-316.8000	-6.2372
231.8945	-316.8000	-6.2354
233.5981	-316.8000	-6.2313
235.3004	-316.8000	-6.2318
237.0059	-316.8000	-6.2291
238.7132	-316.8000	-6.2314
240.4141	-316.8000	-6.2274
242.1176	-316.8000	-6.2312
243.8203	-316.8000	-6.2254
245.5230	-316.8000	-6.2279
247.2269	-316.8000	-6.2288
248.9300	-316.8000	-6.2260
250.6342	-316.8000	-6.2260
252.3435	-316.8000	-6.2254
254.0487	-316.8000	-6.2209
255.7483	-316.8000	-6.2269
257.4548	-316.8000	-6.2209
259.1563	-316.8000	-6.2240
260.8607	-316.8000	-6.2242
262.5660	-316.8000	-6.2237
264.2707	-316.8000	-6.2181
265.9731	-316.8000	-6.2189
267.6768	-316.8000	-6.2156
269.3812	-316.8000	-6.2167
271.0867	-316.8000	-6.2140
272.7965	-316.8000	-6.2151
274.5008	-316.8000	-6.2108
276.2024	-316.8000	-6.2147
277.9053	-316.8000	-6.2124
279.6097	-316.8000	-6.2160
281.3133	-316.8000	-6.2070
283.0160	-316.8000	-6.2110
284.7184	-316.8000	-6.2176
286.4271	-316.8000	-6.2115
288.1334	-316.8000	-6.2134
289.8429	-316.8000	-6.2115
291.5463	-316.8000	-6.2113
293.2478	-316.8000	-6.2055
294.9549	-316.8000	-6.2082
296.6599	-316.8000	-6.2043
298.3645	-316.8000	-6.2051
300.0671	-316.8000	-6.2070
301.7690	-316.8000	-6.2049
303.4732	-316.8000	-6.2050
305.1766	-316.8000	-6.2028
306.8835	-316.8000	-6.2044
308.5855	-316.8000	-6.2019
310.2891	-316.8000	-6.1971
311.9950	-316.8000	-6.1996
313.6957	-316.8000	-6.2021
315.4019	-316.8000	-6.1953
317.1072	-316.8000	-6.1999
318.8122	-316.8000	-6.2000
320.5158	-316.8000	-6.1983
322.2190	-316.8000	-6.1985
323.9215	-316.8000	-6.2008
325.6208	-316.8000	-6.1944
327.3282	-316.8000	-6.1924
329.0311	-316.8000	-6.1956
330.7338	-316.8000	-6.1927
332.4363	-316.8000	-6.1984
334.1391	-316.8000	-6.1954
335.8432	-316.8000	-6.1934
337.5462	-316.8000	-6.1913
339.2491	-316.8000	-6.1948
340.9512	-316.8000	-6.1909
342.6530	-316.8000	-6.1872
344.3575	-316.8000	-6.1901
346.0628	-316.8000	-6.1918
347.7664	-316.8000	-6.1889
349.4716	-316.8000	-6.1900
351.1715	-316.8000	-6.1856
352.8748	-316.8000	-6.1870
354.5783	-316.8000	-6.1855
356.2793	-316.8000	-6.1886
357.9824	-316.8000	-6.1828
359.6871	-316.8000	-6.1839
361.3914	-316.8000	-6.1858
363.0923	-316.8000	-6.1869
364.7953	-316.8000	-6.1753
366.4977	-316.8000	-6.1832
368.1975	-316.8000	-6.1858
369.8992	-316.8000	-6.1834
371.5994	-316.8000	-6.1816
373.3038	-316.8000	-6.1783
375.0071	-316.8000	-6.1784
376.7119	-316.8000	-6.1821
378.4132	-316.8000	-6.1768
380.1193	-316.8000	-6.1858
381.8217	-316.8000	-6.1755
383.5220	-316.8000	-6.1705
385.2237	-316.8000	-6.1755
386.9318	-316.8000	-6.1748
388.6330	-316.8000	-6.1760
390.3358	-316.8000	-6.1760
392.0395	-316.8000	-6.1733
393.7413	-316.8000	-6.1733
395.4442	-316.8000	-6.1683
397.1484	-316.8000	-6.1712
398.8493	-316.8000	-6.1687
400.5521	-316.8000	-6.1723
402.2521	-316.8000	-6.1666
403.9582	-316.8000	-6.1637
405.6619	-316.8000	-6.1684
407.3693	-316.8000	-6.1715
409.0720	-316.8000	-6.1641
410.7715	-316.8000	-6.1668
412.4742	-316.8000	-6.1630
414.1798	-316.8000	-6.1674
415.8848	-316.8000	-6.1668
417.5876	-316.8000	-6.1611
419.2936	-316.8000	-6.1661
420.9978	-316.8000	-6.1630
422.7021	-316.8000	-6.1594
424.4020	-316.8000	-6.1609
426.1052	-316.8000	-6.1574
427.8087	-316.8000	-6.1584
429.5090	-316.8000	-6.1591
431.2134	-316.8000	-6.1588
432.9175	-316.8000	-6.1564
434.6222	-316.8000	-6.1558
436.3257	-316.8000	-6.1585
438.0304	-316.8000	-6.1541
439.7321	-316.8000	-6.1603
441.4388	-316.8000	-6.1551
443.1433	-316.8000	-6.1537
444.8440	-316.8000	-6.1564
446.5482	-316.8000	-6.1518
448.2511	-316.8000	-6.1495
449.9524	-316.8000	-6.1518
451.6548	-316.8000	-6.1514
453.3571	-316.8000	-6.1492
455.0613	-316.8000	-6.1537
456.7638	-316.8000	-6.1492
458.4690	-316.8000	-6.1468
460.1703	-316.8000	-6.1436
461.8758	-316.8000	-6.1502
463.5802	-316.8000	-6.1526
465.2871	-316.8000	-6.1482
466.9928	-316.8000	-6.1483
468.7176	-312.9020	-6.1498
470.4200	-301.5550	1.0296
472.1259	-290.1680	1.4529
473.8285	-278.8200	1.2610
475.5318	-267.4650	1.2203
477.2562	-265.5670	1.3111
478.9585	-254.2180	1.3622
480.6601	-242.8680	1.3901
482.3672	-231.4860	1.3802
484.0727	-220.1340	1.3723
485.6758	-216.8000	1.3724