Folder: RRI/Tinius-Olsen_Levitation_force/Measurements

Note: README.md
# RRI
Repository of code and measurements throught employment with RRI(Paihauâ€”Robinson Research Institute)

File: 20231127_1023calibration.txt
27/11/2023 10:23:50 am
Time(s)	Displacement(mm) Force(N)
0.0000	50.0000	-0.3448
1.7511	50.0000	-0.3437
3.4567	50.0000	-0.3445
5.1623	50.0000	-0.3445
6.8669	50.0000	-0.3451
8.5713	50.0000	-0.3459
10.2768	50.0000	-0.3443
11.9788	50.0000	-0.3442
13.6845	50.0000	-0.3446
15.3881	50.0000	-0.3425
17.0940	50.0000	-0.3451
18.7969	50.0000	-0.3467
20.4983	50.0000	-0.3418
22.2047	50.0000	-0.3461
23.9088	50.0000	-0.3437
25.6105	50.0000	-0.3445
27.3199	50.0000	-0.3442
29.0219	50.0000	-0.3448
30.7245	50.0000	-0.3450
32.4257	50.0000	-1.3552
34.1285	50.0000	-1.3672
35.8347	50.0000	-1.2151
37.5392	50.0000	-1.6638
39.2456	50.0000	-0.7174
40.9482	50.0000	0.7424
42.6523	50.0000	0.8933
44.3546	50.0000	0.9445
46.0624	50.0000	0.8392
47.7659	50.0000	0.5492
49.4704	50.0000	0.7323
51.1722	50.0000	0.7939
52.8725	50.0000	0.8282
54.5793	50.0000	0.7238
56.2824	50.0000	0.7248
57.9847	50.0000	0.7239
59.6923	50.0000	0.7228
61.3977	50.0000	0.7234
63.1012	50.0000	0.7221
64.8022	50.0000	0.7224
66.5050	50.0000	0.7228
68.2093	50.0000	0.7213
69.9111	50.0000	0.7220
71.6173	50.0000	0.7232
73.3205	50.0000	0.7199
75.0226	50.0000	0.7202
76.7267	50.0000	0.7224
78.4317	50.0000	0.7202
80.1327	50.0000	0.7201
81.8346	50.0000	0.7193
83.5407	50.0000	0.7199
85.2444	50.0000	0.7232
86.9486	50.0000	0.7232
88.6508	50.0000	0.7226
90.3527	50.0000	0.7214
92.0546	50.0000	0.7224
93.7567	50.0000	0.7219
95.4603	50.0000	0.7235
97.1628	50.0000	0.7237
98.8620	50.0000	0.7235
100.5635	50.0000	0.7247
102.2660	50.0000	0.7245
103.9675	50.0000	0.7202
105.6710	50.0000	0.7267
107.3729	50.0000	0.7225
109.0806	50.0000	0.7212
110.7828	50.0000	0.7270
112.4829	50.0000	0.7284
114.1853	50.0000	0.7494
115.8907	50.0000	2.1732
117.5930	50.0000	2.1661
119.2930	50.0000	2.1690
120.9945	50.0000	2.1730
122.7018	50.0000	2.1652
124.4055	50.0000	2.1670
126.1100	50.0000	2.1617
127.8131	50.0000	2.1603
129.5130	50.0000	2.1664
131.2131	50.0000	2.1568
132.9152	50.0000	2.1629
134.6172	50.0000	2.1662
136.3207	50.0000	2.1609
138.0256	50.0000	2.1645
139.7296	50.0000	2.1611
141.4354	50.0000	2.1675
143.1387	50.0000	2.1659
144.8432	50.0000	2.1622
146.5464	50.0000	2.1582
148.2517	50.0000	2.1602
149.9524	50.0000	2.1645
151.6539	50.0000	2.1539
153.3603	50.0000	2.1917
155.0610	50.0000	3.6207
156.7657	50.0000	3.6326
158.4686	50.0000	3.6333
160.1709	50.0000	3.6351
161.8729	50.0000	3.6303
163.5750	50.0000	3.6378
165.2790	50.0000	3.6391
166.9785	50.0000	3.6316
168.6814	50.0000	3.6310
170.3833	50.0000	3.6331
172.0833	50.0000	3.6328
173.7848	50.0000	3.6354
175.4886	50.0000	4.1715
177.1927	50.0000	2.2478
178.8952	50.0000	2.1925
180.5958	50.0000	2.1911
182.3036	50.0000	2.1932
184.0058	50.0000	2.1997
185.7133	50.0000	2.1963
187.4158	50.0000	2.1919
189.1204	50.0000	2.1980
190.8213	50.0000	2.1922
192.5213	50.0000	2.1951
194.2209	50.0000	2.1919
195.9236	50.0000	2.1954
197.6235	50.0000	2.1945
199.3260	50.0000	2.1904
201.0288	50.0000	3.5880
202.7305	50.0000	4.0790
204.4328	50.0000	4.0836
206.1368	50.0000	4.0818
207.8404	50.0000	4.0811
209.5462	50.0000	4.0780
211.2462	50.0000	4.0840
212.9462	50.0000	4.0841
214.6462	50.0000	4.0830
216.3507	50.0000	4.0806
218.0539	50.0000	4.0815
219.7598	50.0000	4.0780
221.4638	50.0000	4.1308
223.1663	50.0000	3.7859
224.8745	50.0000	5.4772
226.5812	50.0000	5.1333
228.2818	50.0000	2.6088
229.9838	50.0000	2.6120
231.6890	50.0000	2.5793
233.3920	50.0000	2.6092
235.0982	50.0000	2.6119
236.7997	50.0000	2.6106
238.5041	50.0000	2.6138
240.2032	50.0000	2.6127
241.9044	50.0000	2.6121
243.6134	50.0000	2.6104
245.3141	50.0000	2.6116
247.0165	50.0000	2.6141
248.7222	50.0000	2.6100
250.4266	50.0000	2.6114
252.1299	50.0000	2.6125
253.8341	50.0000	2.6112
255.5364	50.0000	2.6133
257.2422	50.0000	2.6084
258.9502	50.0000	2.6100
260.6542	50.0000	2.6097
262.3592	50.0000	2.6140
264.0659	50.0000	2.4835
265.7691	50.0000	3.8880
267.4726	50.0000	4.0500
269.1767	50.0000	4.0506
270.8801	50.0000	4.0496
272.5861	50.0000	4.0525
274.2868	50.0000	4.0483
275.9916	50.0000	4.0500
277.6964	50.0000	4.0466
279.3994	50.0000	4.0529
281.1022	50.0000	4.0458
282.8068	50.0000	4.0494
284.5117	50.0000	4.0509
286.2145	50.0000	4.0485
287.9175	50.0000	4.0525
289.6218	50.0000	4.0504
291.3243	50.0000	4.0526
293.0245	50.0000	4.0468
294.7245	50.0000	4.0504
296.4269	50.0000	4.0471
298.1283	50.0000	4.0500
299.8322	50.0000	4.0508
301.5325	50.0000	4.0516
303.2346	50.0000	4.0502
304.9369	50.0000	4.0477
306.6406	50.0000	4.0476
308.3469	50.0000	4.0497
310.0494	50.0000	4.0487
311.7532	50.0000	4.0522
313.4546	50.0000	4.0498
315.1547	50.0000	4.0499
316.8616	50.0000	4.0497
318.5626	50.0000	4.0510
320.2646	50.0000	4.0514
321.9721	50.0000	4.0490
323.6730	50.0000	4.0493
325.3772	50.0000	4.0468
327.0805	50.0000	4.0502
328.7821	50.0000	4.0482
330.4849	50.0000	4.0465
332.1927	50.0000	4.0469
333.8971	50.0000	4.0478
335.6016	50.0000	4.0488
337.3030	50.0000	4.0452
339.0049	50.0000	4.0478
340.7049	50.0000	4.0479
342.4045	50.0000	4.0490
344.1049	50.0000	4.0742
345.8065	50.0000	2.6105
347.5074	50.0000	2.6208
349.2121	50.0000	2.6168
350.9193	50.0000	2.6149
352.6229	50.0000	2.6160
354.3249	50.0000	2.6180
356.0273	50.0000	4.1582
357.7292	50.0000	4.4962
359.4338	50.0000	4.5052
361.1400	50.0000	4.5079
362.8433	50.0000	4.5062
364.5450	50.0000	4.5019
366.2466	50.0000	4.5050
367.9522	50.0000	4.5088
369.6552	50.0000	4.5033
371.3573	50.0000	4.5079
373.0589	50.0000	4.4993
374.7598	50.0000	4.5057
376.4652	50.0000	4.5052
378.1718	50.0000	4.4996
379.8737	50.0000	4.5029
381.5749	50.0000	4.5053
383.2774	50.0000	4.5055
384.9808	50.0000	4.5035
386.6805	50.0000	4.5040
388.3831	50.0000	4.5080
390.0862	50.0000	4.5083
391.7894	50.0000	2.6089
393.4947	50.0000	2.6108
395.1954	50.0000	2.6148
396.8978	50.0000	2.6159
398.6007	50.0000	2.6164
400.3032	50.0000	2.6180
402.0054	50.0000	2.6166
403.7055	50.0000	2.5890
405.4079	50.0000	2.6359
407.1112	50.0000	2.6837
408.8133	50.0000	2.6244
410.5155	50.0000	2.7392
412.2197	50.0000	2.7697
413.9247	50.0000	2.6155
415.6255	50.0000	1.9169
417.3280	50.0000	2.1177
419.0280	50.0000	1.9872
420.7280	50.0000	1.8989
422.4330	50.0000	1.0983
424.1379	50.0000	1.2319
425.8426	50.0000	0.7590
427.5450	50.0000	-0.3492
429.2481	50.0000	-0.3533
430.9509	50.0000	-0.3548
432.6529	50.0000	-0.3539
434.3576	50.0000	-0.3525
436.0598	50.0000	-0.3520
437.7642	50.0000	-0.3553
439.4650	50.0000	-0.3533
441.1682	50.0000	-0.3538
442.8683	50.0000	-0.3529
444.5730	50.0000	-0.3533
446.2738	50.0000	-0.3846
447.9754	50.0000	-1.4304
449.6781	50.0000	-0.8641
451.3821	50.0000	0.8979
453.0859	50.0000	0.9171
454.7877	50.0000	1.2374
456.4891	50.0000	1.0383
458.1937	50.0000	1.0856
459.8952	50.0000	1.2105
461.6024	50.0000	1.5360
463.3061	50.0000	1.5390
465.0084	50.0000	1.5379
466.7094	50.0000	1.5359
468.4141	50.0000	1.5399
470.1141	50.0000	1.5381
471.8202	50.0000	1.5388
473.5237	50.0000	1.5387
475.2255	50.0000	1.5408
476.9257	50.0000	1.5379
478.6258	50.0000	1.5363
480.3282	50.0000	1.5363
482.0328	50.0000	1.5382
483.7382	50.0000	1.5373
485.4426	50.0000	1.5384
487.1442	50.0000	1.5342
488.8480	50.0000	1.5392
490.5534	50.0000	1.5331
492.2562	50.0000	1.5373
493.9562	50.0000	1.5399
494.8558	50.0000	1.5413

File: 20231204_0933cut1_lowN_1.txt
4/12/2023 9:33:35 am
Time(s)	Displacement(mm)	Force(N)
0.0000	-216.1370	1.3104
0.1286	-216.5840	1.3256
0.2303	-217.2710	1.3242
0.3301	-217.9550	1.3266
0.4298	-218.6040	1.3284
0.5296	-219.2880	1.3278
0.6303	-219.9380	1.3265
0.7300	-220.6220	1.3287
0.8298	-221.2710	1.3252
0.9307	-221.9550	1.3262
1.0313	-222.6040	1.3247
1.1310	-223.2870	1.3247
1.2315	-223.9710	1.3229
1.3309	-224.6200	1.3235
1.4308	-225.2700	1.3242
1.5310	-225.9560	1.3263
1.6306	-226.6050	1.3266
1.7317	-227.2890	1.3274
1.8321	-227.9730	1.3256
1.9323	-228.6220	1.3270
2.0319	-229.3050	1.3243
2.1321	-229.9550	1.3269
2.2317	-230.6380	1.3269
2.3322	-231.2880	1.3267
2.4323	-231.9710	1.3249
2.5321	-232.6210	1.3255
2.6318	-233.3040	1.3234
2.7320	-233.9540	1.3247
2.8321	-234.6370	1.3267
2.9319	-235.2870	1.3242
3.0326	-235.9700	1.3251
3.1322	-236.6200	1.3238
3.2318	-237.3040	1.3250
3.3320	-237.9530	1.3254
3.4327	-238.6360	1.3252
3.5327	-239.2860	1.3234
3.6328	-239.9700	1.3263
3.7330	-240.6190	1.3247
3.8338	-241.3020	1.3227
3.9340	-241.9860	1.3262
4.0348	-242.6360	1.3246
4.1349	-243.3190	1.3262
4.2349	-243.9690	1.3239
4.3355	-244.6520	1.3259
4.4349	-245.3020	1.3267
4.5349	-245.9850	1.3294
4.6349	-246.6340	1.3250
4.7349	-247.3180	1.3237
4.8349	-247.9680	1.3251
4.9349	-248.6510	1.3248
5.0357	-249.3010	1.3248
5.1361	-249.9860	1.3256
5.2370	-250.6700	1.3215
5.3368	-251.3190	1.3209
5.4375	-252.0030	1.3262
5.5373	-252.6530	1.3243
5.6370	-253.3360	1.3226
5.7372	-253.9850	1.3226
5.8373	-254.6700	1.3213
5.9371	-255.3190	1.3213
6.0374	-256.0030	1.3260
6.1369	-256.6520	1.3251
6.2374	-257.3350	1.3184
6.3373	-257.9850	1.3208
6.4374	-258.6680	1.3273
6.5374	-259.3180	1.3213
6.6370	-260.0010	1.3214
6.7372	-260.6510	1.3215
6.8371	-261.3340	1.3216
6.9374	-261.9840	1.3205
7.0373	-262.6670	1.3201
7.1373	-263.3160	1.3213
7.2374	-264.0000	1.3241
7.3373	-264.6490	1.3182
7.4374	-265.3330	1.3185
7.5370	-265.9830	1.3187
7.6372	-266.6660	1.3189
7.7374	-267.3160	1.3173
7.8374	-267.9990	1.3209
7.9373	-268.6830	1.3166
8.0371	-269.3320	1.3172
8.1369	-269.9820	1.3157
8.2372	-270.6650	1.3181
8.3375	-271.3150	1.3117
8.4373	-271.9980	1.3139
8.5373	-272.6480	1.3114
8.6374	-273.3310	1.3135
8.7374	-273.9810	1.3110
8.8380	-274.6640	1.3109
8.9389	-275.3480	1.3067
9.0399	-275.9970	1.3054
9.1398	-276.6810	1.3052
9.2413	-277.3650	1.3019
9.3420	-278.0140	1.3020
9.4431	-278.6980	1.2978
9.5432	-279.3470	1.2986
9.6438	-280.0330	1.2986
9.7451	-280.7160	1.2944
9.8450	-281.3660	1.2907
9.9457	-282.0490	1.2847
10.0464	-282.7330	1.2854
10.1468	-283.3830	1.2804
10.2471	-284.0660	1.2772
10.3480	-284.7500	1.2701
10.4487	-285.3990	1.2683
10.5483	-286.0830	1.2599
10.6485	-286.7320	1.2545
10.7483	-287.3820	1.2473
10.8480	-288.0680	1.2399
10.9491	-288.7510	1.2334
11.0488	-289.4010	1.2307
11.1494	-290.0840	1.2117
11.2501	-290.7340	1.2067
11.3509	-291.4170	1.1934
11.4524	-292.1010	1.1793
11.5526	-292.7500	1.1635
11.6527	-293.4360	1.1493
11.7530	-294.0860	1.1305
11.8533	-294.7690	1.1088
11.9533	-295.4190	1.0889
12.0531	-296.1050	1.0659
12.1530	-296.7540	1.0372
12.2529	-297.4380	1.0074
12.3535	-298.0870	0.9748
12.4530	-298.7710	0.9354
12.5548	-299.4200	0.8962
12.6548	-300.1060	0.8483
12.7545	-300.7900	0.8003
12.8540	-301.4400	0.7399
12.9539	-302.0890	0.6801
13.0546	-302.7750	0.6040
13.1539	-303.4580	0.5264
13.2543	-304.1080	0.4332
13.3539	-304.7570	0.3323
13.4549	-305.4410	0.2221
13.5559	-306.1240	0.0967
13.6567	-306.7730	-0.0484
13.7569	-307.4570	-0.2061
13.8574	-308.1070	-0.3849
13.9571	-308.7900	-0.5930
14.0573	-309.4740	-0.8190
14.1575	-310.1230	-1.0744
14.2575	-310.7730	-1.3609
14.3574	-311.4590	-1.6877
14.4576	-312.1420	-2.0587
14.5578	-312.7920	-2.4846
14.6576	-313.4410	-2.9661
14.7580	-314.1250	-3.5209
14.8587	-314.8080	-4.1620
14.9591	-315.4920	-4.8929
15.0594	-316.0030	-5.1933
15.1599	-316.0020	-4.7646
15.2599	-316.0020	-4.5331
15.3597	-316.0020	-4.3847
15.4597	-316.0020	-4.2787
15.5595	-316.0010	-4.1950
15.6595	-316.0010	-4.1246
15.7599	-316.0010	-4.0681
15.8610	-316.0010	-4.0173
15.9624	-316.0010	-3.9767
16.0621	-316.0010	-3.9417
16.1639	-316.0010	-3.9030
16.2634	-316.0010	-3.8645
16.3633	-316.0010	-3.8392
16.4633	-316.0010	-3.8162
16.5631	-316.0010	-3.7909
16.6633	-316.0010	-3.7644
16.7630	-316.0010	-3.7477
16.8639	-316.0010	-3.7274
16.9632	-316.0010	-3.7129
17.0630	-316.0010	-3.6922
17.1630	-316.0010	-3.6718
17.2640	-316.0010	-3.6582
17.3645	-316.0010	-3.6457
17.4649	-316.0010	-3.6316
17.5645	-316.0010	-3.6197
17.6647	-316.0010	-3.6084
17.7640	-316.0010	-3.5908
17.8647	-316.0010	-3.5848
17.9649	-316.0010	-3.5667
18.0652	-316.0010	-3.5569
18.1651	-316.0010	-3.5400
18.2653	-316.0010	-3.5362
18.3653	-316.0010	-3.5215
18.4653	-316.0010	-3.5190
18.5652	-316.0010	-3.5130
18.6652	-316.0010	-3.4944
18.7653	-316.0010	-3.4864
18.8653	-316.0010	-3.4798
18.9653	-316.0010	-3.4765
19.0653	-316.0010	-3.4597
19.1653	-316.0010	-3.4572
19.2653	-316.0010	-3.4451
19.3655	-315.8530	-3.3962
19.4877	-315.4390	-2.1718
19.5874	-314.7890	-0.6983
19.6877	-314.1050	0.2853
19.7877	-313.4560	0.8185
19.8877	-312.7720	1.0024
19.9876	-312.0890	1.2065
20.0883	-311.4390	1.2684
20.1889	-310.7560	1.3065
20.2889	-310.1060	1.3392
20.3889	-309.4570	1.3627
20.4889	-308.7710	1.3622
20.5881	-308.1210	1.3590
20.6896	-307.4380	1.3547
20.7902	-306.7540	1.3552
20.8911	-306.0710	1.3552
20.9919	-305.4210	1.3569
21.0911	-304.7380	1.3564
21.1915	-304.0890	1.3560
21.2914	-303.4390	1.3577
21.3911	-302.7530	1.3547
21.4918	-302.1030	1.3565
21.5922	-301.4170	1.3557
21.6922	-300.7340	1.3552
21.7927	-300.0840	1.3537
21.8924	-299.4010	1.3551
21.9921	-298.7510	1.3538
22.0927	-298.0680	1.3502
22.1932	-297.4180	1.3534
22.2938	-296.7350	1.3545
22.3939	-296.0510	1.3525
22.4943	-295.4020	1.3540
22.5946	-294.7180	1.3530
22.6942	-294.0690	1.3528
22.7950	-293.3850	1.3516
22.8951	-292.7360	1.3503
22.9954	-292.0520	1.3515
23.0954	-291.4020	1.3562
23.1954	-290.7190	1.3531
23.2954	-290.0690	1.3544
23.3954	-289.3860	1.3538
23.4954	-288.7370	1.3538
23.5954	-288.0530	1.3505
23.6954	-287.4040	1.3527
23.7954	-286.7180	1.3523
23.8954	-286.0680	1.3542
23.9954	-285.3840	1.3542
24.0956	-284.7350	1.3533
24.1953	-284.0510	1.3508
24.2971	-283.3680	1.3494
24.3968	-282.7180	1.3513
24.4964	-282.0690	1.3514
24.5973	-281.3850	1.3507
24.6975	-280.7020	1.3507
24.7975	-280.0520	1.3523
24.8976	-279.3690	1.3519
24.9975	-278.7190	1.3546
25.0976	-278.0360	1.3561
25.1976	-277.3860	1.3519
25.2978	-276.7030	1.3523
25.3977	-276.0530	1.3542
25.4977	-275.3700	1.3530
25.5979	-274.7210	1.3493

File: 20231204_1051cut1_lowN_2.txt
4/12/2023 10:51:51 am
Time(s)	Displacement(mm)	Force(N)
0.0000	49.8480	1.3167
1.4433	40.6480	1.3377
2.8480	31.2800	1.3320
4.2493	21.9470	1.3335
5.6493	12.6110	1.3305
7.0513	3.2450	1.3312
8.4528	-6.0850	1.3333
9.8579	-15.4520	1.3318
11.2594	-24.7860	1.3261
12.6622	-34.1560	1.3300
14.0649	-43.4870	1.3312
15.4664	-52.8550	1.3293
16.8681	-62.1880	1.3338
18.2689	-71.5530	1.3338
19.6696	-80.8850	1.3324
21.0718	-90.2160	1.3357
22.4718	-99.5490	1.3301
23.8749	-108.9140	1.3392
25.2777	-118.2480	1.3325
26.6842	-127.6500	1.3293
28.0874	-136.9830	1.3381
29.4897	-146.3480	1.3270
30.8897	-155.6790	1.3336
32.2917	-165.0110	1.3360
33.6918	-174.3420	1.3320
35.0955	-183.7070	1.3354
36.4946	-193.0400	1.3361
37.8962	-202.3710	1.3335
39.2961	-211.7020	1.3325
40.6978	-221.0670	1.3334
42.0984	-230.3990	1.3352
43.4999	-239.7300	1.3353
44.8999	-249.0610	1.3294
46.3039	-258.4310	1.3320
47.7069	-267.7960	1.3265
49.1100	-277.1270	1.3131
50.5125	-286.4930	1.2634
51.9125	-295.8260	1.0942
53.3172	-305.1940	0.3184
54.7178	-314.5270	-3.6755
56.1201	-316.0000	-4.0545
57.5225	-316.0000	-3.8110
58.9230	-316.0000	-3.7247
60.3241	-316.0000	-3.6745
61.7247	-316.0000	-3.6238
63.1290	-316.0000	-3.5968
64.5296	-316.0000	-3.5767
65.9304	-316.0000	-3.5563
67.3323	-316.0000	-3.5415
68.7340	-316.0000	-3.5216
70.1374	-316.0000	-3.5061
71.5381	-316.0000	-3.4976
72.9410	-316.0000	-3.4763
74.3432	-316.0000	-3.4763
75.7453	-316.0000	-3.4546
77.1483	-316.0000	-3.4589
78.5505	-316.0000	-3.4477
79.9530	-316.0000	-3.4390
81.3530	-316.0000	-3.4204
82.7528	-316.0000	-3.4176
84.1563	-316.0000	-3.3974
85.5575	-316.0000	-3.3856
86.9588	-316.0000	-3.3667
88.3607	-316.0000	-3.3655
89.7620	-316.0000	-3.3467
91.1642	-316.0000	-3.3461
92.5713	-316.0000	-3.3166
93.9708	-316.0000	-3.3101
95.3731	-316.0000	-3.2955
96.7733	-316.0000	-3.2732
98.1767	-316.0000	-3.2668
99.5809	-316.0000	-3.2492
100.9824	-316.0000	-3.2332
102.3833	-316.0000	-3.2190
103.7834	-316.0000	-3.2082
105.1848	-316.0000	-3.1922
106.5855	-316.0000	-3.1808
107.9862	-316.0000	-3.1651
109.3881	-316.0000	-3.1331
110.7911	-316.0000	-3.1094
112.1911	-316.0000	-3.0918
113.5911	-316.0000	-3.0487
114.9935	-316.0000	-3.0388
116.3943	-316.0000	-3.0122
117.7952	-316.0000	-2.9912
119.2011	-316.0000	-2.9668
120.6070	-316.0000	-2.9424
122.0101	-316.0000	-2.9327
123.4112	-316.0000	-2.9186
124.8128	-316.0000	-2.8980
126.2136	-316.0000	-2.8750
127.6171	-316.0000	-2.8471
129.0185	-316.0000	-2.8263
130.4188	-316.0000	-2.8035
131.8230	-316.0000	-2.7861
133.2234	-316.0000	-2.7629
134.6239	-316.0000	-2.7458
136.0237	-316.0000	-2.7212
137.4247	-316.0000	-2.6989
138.8244	-316.0000	-2.6730
140.2282	-316.0000	-2.6589
141.6317	-316.0000	-2.6409
143.0341	-316.0000	-2.6082
144.4341	-316.0000	-2.5847
145.8358	-316.0000	-2.5664
147.2379	-316.0000	-2.5390
148.6399	-316.0000	-2.5101
150.0416	-316.0000	-2.4834
151.4418	-316.0000	-2.4605
152.8418	-316.0000	-2.4354
154.2443	-316.0000	-2.4164
155.6447	-316.0000	-2.3903
157.0488	-316.0000	-2.3635
158.4498	-316.0000	-2.3300
159.8534	-316.0000	-2.2952
161.2542	-316.0000	-2.2725
162.6543	-316.0000	-2.2351
164.0569	-316.0000	-2.2068
165.4620	-316.0000	-2.1697
166.8621	-316.0000	-2.1371
168.2623	-316.0000	-2.0901
169.6645	-316.0000	-2.0585
171.0660	-316.0000	-2.0137
172.4674	-316.0000	-1.9811
173.8709	-316.0000	-1.9499
175.2764	-316.0000	-1.9074
176.6796	-316.0000	-1.8617
178.0804	-316.0000	-1.8291
179.4804	-316.0000	-1.7722
180.8826	-316.0000	-1.7226
182.2830	-316.0000	-1.6854
183.6881	-316.0000	-1.6504
185.0897	-316.0000	-1.6082
186.4904	-316.0000	-1.5714
187.8910	-316.0000	-1.5446
189.2925	-316.0000	-1.5205
190.6945	-316.0000	-1.4788
192.0970	-316.0000	-1.4577
193.4998	-316.0000	-1.4244
194.9014	-315.9990	-1.4040
196.3042	-316.0000	-1.3793
197.7051	-316.0000	-1.3577
199.1065	-316.0000	-1.3343
200.5095	-316.0000	-1.3143
201.9135	-316.0000	-1.2956
203.3151	-316.0000	-1.2639
204.7196	-316.0000	-1.2488
206.1228	-316.0000	-1.2259
207.5239	-316.0000	-1.2041
208.9258	-316.0000	-1.1902
210.3284	-316.0000	-1.1685
211.7317	-316.0000	-1.1510
213.1329	-316.0000	-1.1298
214.5329	-316.0000	-1.1186
215.9353	-316.0000	-1.0971
217.3379	-316.0000	-1.0841
218.7436	-316.0000	-1.0712
220.1430	-316.0000	-1.0657
221.5430	-316.0000	-1.0527
222.9451	-316.0000	-1.0396
224.3451	-316.0000	-1.0284
225.7466	-316.0000	-1.0163
227.1487	-316.0000	-0.9995
228.5508	-316.0000	-1.0019
229.9556	-316.0000	-0.9929
231.3556	-316.0000	-0.9784
232.7569	-316.0000	-0.9757
234.1605	-316.0000	-0.9599
235.5611	-316.0000	-0.9549
236.9633	-316.0000	-0.9523
238.3649	-316.0000	-0.9397
239.7657	-316.0000	-0.9326
241.1662	-316.0000	-0.9356
242.5682	-316.0000	-0.9176
243.9722	-316.0000	-0.9116
245.3758	-316.0000	-0.9102
246.7756	-316.0000	-0.9009
248.1758	-316.0000	-0.9050
249.5782	-316.0000	-0.8980
250.9791	-316.0000	-0.8932
252.3812	-316.0000	-0.8830
253.7836	-316.0000	-0.8780
255.1905	-316.0000	-0.8741
256.5935	-316.0000	-0.8761
257.9975	-316.0000	-0.8683
259.3988	-316.0000	-0.8621
260.8023	-316.0000	-0.8556
262.2037	-316.0000	-0.8579
263.6060	-316.0000	-0.8532
265.0058	-316.0000	-0.8479
266.4081	-316.0000	-0.8453
267.8112	-316.0000	-0.8404
269.2145	-316.0000	-0.8389
270.6190	-316.0000	-0.8351
272.0228	-316.0000	-0.8354
273.4260	-316.0000	-0.8325
274.8262	-316.0000	-0.8263
276.2277	-316.0000	-0.8213
277.6327	-316.0000	-0.8214
279.0340	-316.0000	-0.8224
280.4344	-316.0000	-0.8211
281.8340	-316.0000	-0.7995
283.2340	-316.0000	-0.8079
284.6375	-316.0000	-0.8038
286.0400	-316.0000	-0.7956
287.4420	-316.0000	-0.7910
288.8441	-316.0000	-0.7988
290.2443	-316.0000	-0.7889
291.6442	-316.0000	-0.7906
293.0441	-316.0000	-0.7878
294.4443	-316.0000	-0.7808
295.8467	-316.0000	-0.7800
297.2499	-316.0000	-0.7735
298.6533	-316.0000	-0.7674
300.0542	-316.0000	-0.7764
301.4602	-316.0000	-0.7657
302.8642	-316.0000	-0.7664
304.2662	-316.0000	-0.7568
305.6667	-316.0000	-0.7498
307.0711	-316.0000	-0.7521
308.4722	-316.0000	-0.7538
309.8746	-316.0000	-0.7507
311.2760	-316.0000	-0.7490
312.6785	-316.0000	-0.7442
314.0819	-316.0000	-0.7447
315.4846	-316.0000	-0.7408
316.8881	-316.0000	-0.7432
318.2904	-316.0000	-0.7363
319.6936	-316.0000	-0.7362
321.0947	-316.0000	-0.7319
322.4979	-316.0000	-0.7312
323.9020	-316.0000	-0.7237
325.3046	-316.0000	-0.7248
326.7063	-316.0000	-0.7213
328.1068	-316.0000	-0.7210
329.5073	-316.0000	-0.7173
330.9069	-316.0000	-0.7170
332.3109	-316.0000	-0.7171
333.7168	-316.0000	-0.7111
335.1193	-316.0000	-0.7157
336.5226	-316.0000	-0.7084
337.9250	-316.0000	-0.7006
339.3274	-316.0000	-0.7053
340.7298	-316.0000	-0.7042
342.1309	-316.0000	-0.6944
343.5337	-316.0000	-0.6945
344.9357	-316.0000	-0.6876
346.3351	-316.0000	-0.6936
347.7352	-316.0000	-0.6859
349.1352	-316.0000	-0.6883
350.5387	-316.0000	-0.6844
351.9415	-316.0000	-0.6817
353.3433	-316.0000	-0.6831
354.7459	-316.0000	-0.6765
356.1473	-316.0000	-0.6786
357.5477	-316.0000	-0.6744
358.9478	-316.0000	-0.6709
360.3490	-316.0000	-0.6668
361.7499	-316.0000	-0.6649
363.1536	-316.0000	-0.6694
364.5578	-316.0000	-0.6709
365.9576	-316.0000	-0.6681
367.3606	-316.0000	-0.6626
368.7649	-316.0000	-0.6609
370.1655	-316.0000	-0.6625
371.5674	-316.0000	-0.6607
372.9679	-316.0000	-0.6616
374.3712	-316.0000	-0.6507
375.7729	-316.0000	-0.6601
377.1757	-316.0000	-0.6413
378.5781	-316.0000	-0.6565
379.9780	-316.0000	-0.6499
381.3813	-316.0000	-0.6488
382.7867	-316.0000	-0.6497
384.1906	-316.0000	-0.6407
385.5934	-316.0000	-0.6413
386.9948	-316.0000	-0.6397
388.3954	-316.0000	-0.6416
389.7976	-316.0000	-0.6381
391.2016	-316.0000	-0.6346
392.6037	-316.0000	-0.6337
394.0054	-316.0000	-0.6330
395.4082	-316.0000	-0.6279
396.1096	-316.0000	-0.6347