Folder: RRI/Tinius-Olsen_Levitation_force/Measurements (part 6)

File: zero_force.txt
27/11/2023 10:22:30 am
Time(s)	Displacement(mm) Force(N)
0.0000	50.0000	-0.3487
5.0192	50.0000	-0.3560
5.2191	50.0000	-0.3473
5.4191	50.0000	-0.3421
5.6201	50.0000	-0.3450
5.8199	50.0000	-0.3397
6.0213	50.0000	-0.3384
6.2208	50.0000	-0.3405
6.4216	50.0000	-0.3441
6.6221	50.0000	-0.3462
6.8220	50.0000	-0.3525
7.0220	50.0000	-0.3431
7.2233	50.0000	-0.3555
7.4229	50.0000	-0.3407
7.6239	50.0000	-0.3507
7.8239	50.0000	-0.3459
8.0242	50.0000	-0.3480
8.2248	50.0000	-0.3414
8.4258	50.0000	-0.3538
8.6261	50.0000	-0.3456
8.8261	50.0000	-0.3538
9.0262	50.0000	-0.3433
9.2265	50.0000	-0.3379
9.4262	50.0000	-0.3520
9.6261	50.0000	-0.3366
9.8266	50.0000	-0.3515
10.0272	50.0000	-0.3550
10.2272	50.0000	-0.3433
10.4272	50.0000	-0.3327
10.6282	50.0000	-0.3516
10.8296	50.0000	-0.3432
11.0296	50.0000	-0.3329
11.2296	50.0000	-0.3390
11.4293	50.0000	-0.3471
11.6295	50.0000	-0.3538
11.8295	50.0000	-0.3316
12.0296	50.0000	-0.3456
12.2296	50.0000	-0.3446
12.4296	50.0000	-0.3234
12.6294	50.0000	-0.3447
12.8296	50.0000	-0.3537
13.0299	50.0000	-0.3474
13.2320	50.0000	-0.3357
13.4319	50.0000	-0.3375
13.6336	50.0000	-0.3412
13.8341	50.0000	-0.3421
14.0350	50.0000	-0.3403
14.2364	50.0000	-0.3428
14.4361	50.0000	-0.3401
14.6366	50.0000	-0.3490
14.8368	50.0000	-0.3489
15.0372	50.0000	-0.3636
15.2383	50.0000	-0.3478
15.4379	50.0000	-0.3476
15.6387	50.0000	-0.3503
15.8392	50.0000	-0.3510
16.0396	50.0000	-0.3460
16.2397	50.0000	-0.3536
16.4396	50.0000	-0.3486
16.6391	50.0000	-0.3443
16.8396	50.0000	-0.3426
17.0395	50.0000	-0.3371
17.2397	50.0000	-0.3511
17.4392	50.0000	-0.3229
17.6396	50.0000	-0.3322
17.8396	50.0000	-0.3355
18.0400	50.0000	-0.3537
18.2407	50.0000	-0.3454
18.4421	50.0000	-0.3374
18.6419	50.0000	-0.3438
18.8422	50.0000	-0.3442
19.0421	50.0000	-0.3286
19.2426	50.0000	-0.3327
19.4418	50.0000	-0.3515
19.6420	50.0000	-0.3349
19.8438	50.0000	-0.3547
20.0441	50.0000	-0.3335
20.2446	50.0000	-0.3554
20.4441	50.0000	-0.3465
20.6450	50.0000	-0.3499
20.8468	50.0000	-0.3361
21.0474	50.0000	-0.3467
21.2473	50.0000	-0.3549
21.4474	50.0000	-0.3744
21.6475	50.0000	-0.3520
21.8473	50.0000	-0.3417
22.0488	50.0000	-0.3512
22.2496	50.0000	-0.3507
22.4488	50.0000	-0.3534
22.6497	50.0000	-0.3462
22.8496	50.0000	-0.3366
23.0498	50.0000	-0.3486
23.2518	50.0000	-0.3403
23.4521	50.0000	-0.3388
23.6519	50.0000	-0.3554
23.8521	50.0000	-0.3713
24.0521	50.0000	-0.3615
24.2518	50.0000	-0.3433
24.4528	50.0000	-0.3548
24.6528	50.0000	-0.3470
24.8533	50.0000	-0.3364
25.0537	50.0000	-0.3535
25.2530	50.0000	-0.3408
25.4530	50.0000	-0.3441
25.6529	50.0000	-0.3542
25.8537	50.0000	-0.3541
26.0543	50.0000	-0.3339
26.2546	50.0000	-0.3305
26.4546	50.0000	-0.3555
26.6551	50.0000	-0.3579
26.8552	50.0000	-0.3536
27.0561	50.0000	-0.3344
27.2569	50.0000	-0.3234
27.4576	50.0000	-0.3372
27.6573	50.0000	-0.3565
27.8574	50.0000	-0.3298
28.0590	50.0000	-0.3557
28.2598	50.0000	-0.3424
28.4598	50.0000	-0.3420
28.6594	50.0000	-0.3414
28.8597	50.0000	-0.3547
29.0597	50.0000	-0.3363
29.2598	50.0000	-0.3567
29.4598	50.0000	-0.3348
29.6617	50.0000	-0.3421
29.8616	50.0000	-0.3508
30.0621	50.0000	-0.3391
30.2618	50.0000	-0.3480
30.4621	50.0000	-0.3510
30.6622	50.0000	-0.3420
30.8641	50.0000	-0.3499
31.0643	50.0000	-0.3532
31.2642	50.0000	-0.3490
31.4644	50.0000	-0.3465
31.6649	50.0000	-0.3308
31.8660	50.0000	-0.3553
32.0665	50.0000	-0.3355
32.2669	50.0000	-0.3546
32.4683	50.0000	-0.3374
32.6683	50.0000	-0.3397
32.8679	50.0000	-0.3349
33.0679	50.0000	-0.3520
33.2686	50.0000	-0.3478
33.4683	50.0000	-0.3433
33.6697	50.0000	-0.3449
33.8698	50.0000	-0.3396
34.0693	50.0000	-0.3434
34.2698	50.0000	-0.3406
34.4700	50.0000	-0.3539
34.6715	50.0000	-0.3330
34.8728	50.0000	-0.3553
35.0721	50.0000	-0.3524
35.2722	50.0000	-0.3534
35.4721	50.0000	-0.3473
35.6722	50.0000	-0.3465
35.8722	50.0000	-0.3445
36.0723	50.0000	-0.3424
36.2725	50.0000	-0.3469
36.4719	50.0000	-0.3470
36.6731	50.0000	-0.3416
36.8741	50.0000	-0.3492
37.0742	50.0000	-0.3424
37.2754	50.0000	-0.3375
37.4765	50.0000	-0.3427
37.6759	50.0000	-0.3514
37.8762	50.0000	-0.3509
38.0776	50.0000	-0.3488
38.2776	50.0000	-0.3426
38.4778	50.0000	-0.3478
38.6774	50.0000	-0.3483
38.8772	50.0000	-0.3501
39.0775	50.0000	-0.3487
39.2775	50.0000	-0.3424
39.4777	50.0000	-0.3467
39.6776	50.0000	-0.3473
39.8780	50.0000	-0.3478
40.0793	50.0000	-0.3427
40.2798	50.0000	-0.3488
40.4795	50.0000	-0.3459
40.6819	50.0000	-0.3429
40.8820	50.0000	-0.3479
41.0822	50.0000	-0.3397
41.2821	50.0000	-0.3471