Folder: RRI/Tinius-Olsen_Levitation_force/Preprocessed_measures

Note: README.md
# RRI
Repository of code and measurements throught employment with RRI(Paihauâ€”Robinson Research Institute)

File: 20231204_0933cut1_lowN_1.txt.csv
Time(s),Displacement(mm),Force(N)
0.0,-216.137,3.34612
0.1286,-216.584,3.37685
0.2303,-217.271,3.37402
0.3301,-217.955,3.37887
0.4298,-218.604,3.38251
0.5296,-219.288,3.3813
0.6303,-219.938,3.37867
0.73,-220.622,3.38312
0.8298,-221.271,3.37604
0.9307,-221.955,3.37806
1.0313,-222.604,3.37503
1.131,-223.287,3.37503
1.2315,-223.971,3.37139
1.3309,-224.62,3.3726
1.4308,-225.27,3.37402
1.531,-225.956,3.37827
1.6306,-226.605,3.37887
1.7317,-227.289,3.38049
1.8321,-227.973,3.37685
1.9323,-228.622,3.37968
2.0319,-229.305,3.37422
2.1321,-229.955,3.37948
2.2317,-230.638,3.37948
2.3322,-231.288,3.37907
2.4323,-231.971,3.37543
2.5321,-232.621,3.37665
2.6318,-233.304,3.3724
2.732,-233.954,3.37503
2.8321,-234.637,3.37907
2.9319,-235.287,3.37402
3.0326,-235.97,3.37584
3.1322,-236.62,3.37321
3.2318,-237.304,3.37564
3.332,-237.953,3.37645
3.4327,-238.636,3.37604
3.5327,-239.286,3.3724
3.6328,-239.97,3.37827
3.733,-240.619,3.37503
3.8338,-241.302,3.37099
3.934,-241.986,3.37806
4.0348,-242.636,3.37483
4.1349,-243.319,3.37806
4.2349,-243.969,3.37341
4.3355,-244.652,3.37746
4.4349,-245.302,3.37907
4.5349,-245.985,3.38453
4.6349,-246.634,3.37564
4.7349,-247.318,3.37301
4.8349,-247.968,3.37584
4.9349,-248.651,3.37523
5.0357,-249.301,3.37523
5.1361,-249.986,3.37685
5.237,-250.67,3.36856
5.3368,-251.319,3.36735
5.4375,-252.003,3.37806
5.5373,-252.653,3.37422
5.637,-253.336,3.37078
5.7372,-253.985,3.37078
5.8373,-254.67,3.36816
5.9371,-255.319,3.36816
6.0374,-256.003,3.37766
6.1369,-256.652,3.37584
6.2374,-257.335,3.36229
6.3373,-257.985,3.36714
6.4374,-258.668,3.38029
6.5374,-259.318,3.36816
6.637,-260.001,3.36836
6.7372,-260.651,3.36856
6.8371,-261.334,3.36876
6.9374,-261.984,3.36654
7.0373,-262.667,3.36573
7.1373,-263.316,3.36816
7.2374,-264.0,3.37382
7.3373,-264.649,3.36189
7.4374,-265.333,3.36249
7.537,-265.983,3.3629
7.6372,-266.666,3.3633
7.7374,-267.316,3.36007
7.8374,-267.999,3.36735
7.9373,-268.683,3.35865
8.0371,-269.332,3.35987
8.1369,-269.982,3.35683
8.2372,-270.665,3.36169
8.3375,-271.315,3.34875
8.4373,-271.998,3.35319
8.5373,-272.648,3.34814
8.6374,-273.331,3.35239
8.7374,-273.981,3.34733
8.838,-274.664,3.34713
8.9389,-275.348,3.33864
9.0399,-275.997,3.33601
9.1398,-276.681,3.3356
9.2413,-277.365,3.32893
9.342,-278.014,3.32913
9.4431,-278.698,3.32064
9.5432,-279.347,3.32226
9.6438,-280.033,3.32226
9.7451,-280.716,3.31377
9.845,-281.366,3.30629
9.9457,-282.049,3.29416
10.0464,-282.733,3.29557
10.1468,-283.383,3.28546
10.2471,-284.066,3.27899
10.348,-284.75,3.26464
10.4487,-285.399,3.261
10.5483,-286.083,3.24401
10.6485,-286.732,3.2331
10.7483,-287.382,3.21854
10.848,-288.068,3.20358
10.9491,-288.751,3.19043
11.0488,-289.401,3.18497
11.1494,-290.084,3.14656
11.2501,-290.734,3.13645
11.3509,-291.417,3.10956
11.4524,-292.101,3.08105
11.5526,-292.75,3.04911
11.6527,-293.436,3.0204
11.753,-294.086,2.98238
11.8533,-294.769,2.93851
11.9533,-295.419,2.89827
12.0531,-296.105,2.85177
12.153,-296.754,2.79374
12.2529,-297.438,2.73349
12.3535,-298.087,2.66758
12.453,-298.771,2.58792
12.5548,-299.42,2.50866
12.6548,-300.106,2.41181
12.7545,-300.79,2.31477
12.854,-301.44,2.19264
12.9539,-302.089,2.07174
13.0546,-302.775,1.91787
13.1539,-303.458,1.76098
13.2543,-304.108,1.57254
13.3539,-304.757,1.36853
13.4549,-305.441,1.14572
13.5559,-306.124,0.892183
13.6567,-306.773,0.598811
13.7569,-307.457,0.279963
13.8574,-308.107,-0.0815459
13.9571,-308.79,-0.502295
14.0573,-309.474,-0.959236
14.1575,-310.123,-1.47562
14.2575,-310.773,-2.05488
14.3574,-311.459,-2.71563
14.4576,-312.142,-3.46574
14.5578,-312.792,-4.32685
14.6576,-313.441,-5.30038
14.758,-314.125,-6.42211
14.8587,-314.808,-7.71832
14.9591,-315.492,-9.1961
15.0594,-316.003,-9.80347
15.1599,-316.002,-8.9367
15.2599,-316.002,-8.46864
15.3597,-316.002,-8.16859
15.4597,-316.002,-7.95427
15.5595,-316.001,-7.78504
15.6595,-316.001,-7.6427
15.7599,-316.001,-7.52847
15.861,-316.001,-7.42576
15.9624,-316.001,-7.34367
16.0621,-316.001,-7.27291
16.1639,-316.001,-7.19466
16.2634,-316.001,-7.11682
16.3633,-316.001,-7.06567
16.4633,-316.001,-7.01916
16.5631,-316.001,-6.96801
16.6633,-316.001,-6.91443
16.763,-316.001,-6.88066
16.8639,-316.001,-6.83962
16.9632,-316.001,-6.8103
17.063,-316.001,-6.76845
17.163,-316.001,-6.72721
17.264,-316.001,-6.69971
17.3645,-316.001,-6.67443
17.4649,-316.001,-6.64593
17.5645,-316.001,-6.62187
17.6647,-316.001,-6.59902
17.764,-316.001,-6.56343
17.8647,-316.001,-6.5513
17.9649,-316.001,-6.51471
18.0652,-316.001,-6.49489
18.1651,-316.001,-6.46072
18.2653,-316.001,-6.45304
18.3653,-316.001,-6.42332
18.4653,-316.001,-6.41826
18.5652,-316.001,-6.40613
18.6652,-316.001,-6.36853
18.7653,-316.001,-6.35235
18.8653,-316.001,-6.33901
18.9653,-316.001,-6.33234
19.0653,-316.001,-6.29837
19.1653,-316.001,-6.29331
19.2653,-316.001,-6.26885
19.3655,-315.853,-6.16998
19.4877,-315.439,-3.69441
19.5874,-314.789,-0.715198
19.6877,-314.105,1.27351
19.7877,-313.456,2.35156
19.8877,-312.772,2.72338
19.9876,-312.089,3.13605
20.0883,-311.439,3.2612
20.1889,-310.756,3.33823
20.2889,-310.106,3.40435
20.3889,-309.457,3.45186
20.4889,-308.771,3.45085
20.5881,-308.121,3.44438
20.6896,-307.438,3.43569
20.7902,-306.754,3.4367
20.8911,-306.071,3.4367
20.9919,-305.421,3.44013
21.0911,-304.738,3.43912
21.1915,-304.089,3.43831
21.2914,-303.439,3.44175
21.3911,-302.753,3.43569
21.4918,-302.103,3.43933
21.5922,-301.417,3.43771
21.6922,-300.734,3.4367
21.7927,-300.084,3.43366
21.8924,-299.401,3.43649
21.9921,-298.751,3.43387
22.0927,-298.068,3.42659
22.1932,-297.418,3.43306
22.2938,-296.735,3.43528
22.3939,-296.051,3.43124
22.4943,-295.402,3.43427
22.5946,-294.718,3.43225
22.6942,-294.069,3.43184
22.795,-293.385,3.42942
22.8951,-292.736,3.42679
22.9954,-292.052,3.42922
23.0954,-291.402,3.43872
23.1954,-290.719,3.43245
23.2954,-290.069,3.43508
23.3954,-289.386,3.43387
23.4954,-288.737,3.43387
23.5954,-288.053,3.42719
23.6954,-287.404,3.43164
23.7954,-286.718,3.43083
23.8954,-286.068,3.43467
23.9954,-285.384,3.43467
24.0956,-284.735,3.43286
24.1953,-284.051,3.4278
24.2971,-283.368,3.42497
24.3968,-282.718,3.42881
24.4964,-282.069,3.42901
24.5973,-281.385,3.4276
24.6975,-280.702,3.4276
24.7975,-280.052,3.43083
24.8976,-279.369,3.43002
24.9975,-278.719,3.43548
25.0976,-278.036,3.43852
25.1976,-277.386,3.43002
25.2978,-276.703,3.43083
25.3977,-276.053,3.43467
25.4977,-275.37,3.43225
25.5979,-274.721,3.42477

File: 20231204_1051cut1_lowN_2.txt.csv
Time(s),Displacement(mm),Force(N)
0.0,49.848,3.35886
1.4433,40.648,3.40131
2.848,31.28,3.38979
4.2493,21.947,3.39282
5.6493,12.611,3.38676
7.0513,3.245,3.38817
8.4528,-6.085,3.39242
9.8579,-15.452,3.38939
11.2594,-24.786,3.37786
12.6622,-34.156,3.38575
14.0649,-43.487,3.38817
15.4664,-52.855,3.38433
16.8681,-62.188,3.39343
18.2689,-71.553,3.39343
19.6696,-80.885,3.3906
21.0718,-90.216,3.39727
22.4718,-99.549,3.38595
23.8749,-108.914,3.40435
25.2777,-118.248,3.3908
26.6842,-127.65,3.38433
28.0874,-136.983,3.40212
29.4897,-146.348,3.37968
30.8897,-155.679,3.39302
32.2917,-165.011,3.39788
33.6918,-174.342,3.38979
35.0955,-183.707,3.39666
36.4946,-193.04,3.39808
37.8962,-202.371,3.39282
39.2961,-211.702,3.3908
40.6978,-221.067,3.39262
42.0984,-230.399,3.39626
43.4999,-239.73,3.39646
44.8999,-249.061,3.38453
46.3039,-258.431,3.38979
47.7069,-267.796,3.37867
49.11,-277.127,3.35158
50.5125,-286.493,3.25109
51.9125,-295.826,2.90899
53.3172,-305.194,1.34043
54.7178,-314.527,-6.73469
56.1201,-316.0,-7.50097
57.5225,-316.0,-7.00865
58.923,-316.0,-6.83416
60.3241,-316.0,-6.73266
61.7247,-316.0,-6.63016
63.129,-316.0,-6.57557
64.5296,-316.0,-6.53493
65.9304,-316.0,-6.49368
67.3323,-316.0,-6.46376
68.734,-316.0,-6.42352
70.1374,-316.0,-6.39218
71.5381,-316.0,-6.375
72.941,-316.0,-6.33193
74.3432,-316.0,-6.33193
75.7453,-316.0,-6.28806
77.1483,-316.0,-6.29675
78.5505,-316.0,-6.27411
79.953,-316.0,-6.25652
81.353,-316.0,-6.21891
82.7528,-316.0,-6.21325
84.1563,-316.0,-6.17241
85.5575,-316.0,-6.14855
86.9588,-316.0,-6.11034
88.3607,-316.0,-6.10791
89.762,-316.0,-6.0699
91.1642,-316.0,-6.06868
92.5713,-316.0,-6.00904
93.9708,-316.0,-5.9959
95.3731,-316.0,-5.96638
96.7733,-316.0,-5.92129
98.1767,-316.0,-5.90835
99.5809,-316.0,-5.87277
100.9824,-316.0,-5.84042
102.3833,-316.0,-5.81171
103.7834,-316.0,-5.78987
105.1848,-316.0,-5.75752
106.5855,-316.0,-5.73447
107.9862,-316.0,-5.70273
109.3881,-316.0,-5.63803
110.7911,-316.0,-5.59011
112.1911,-316.0,-5.55453
113.5911,-316.0,-5.46738
114.9935,-316.0,-5.44737
116.3943,-316.0,-5.39358
117.7952,-316.0,-5.35113
119.2011,-316.0,-5.30179
120.607,-316.0,-5.25246
122.0101,-316.0,-5.23285
123.4112,-316.0,-5.20434
124.8128,-316.0,-5.16269
126.2136,-316.0,-5.11619
127.6171,-316.0,-5.05978
129.0185,-316.0,-5.01772
130.4188,-316.0,-4.97162
131.823,-316.0,-4.93644
133.2234,-316.0,-4.88953
134.6239,-316.0,-4.85496
136.0237,-316.0,-4.80522
137.4247,-316.0,-4.76014
138.8244,-316.0,-4.70777
140.2282,-316.0,-4.67926
141.6317,-316.0,-4.64287
143.0341,-316.0,-4.57675
144.4341,-316.0,-4.52924
145.8358,-316.0,-4.49224
147.2379,-316.0,-4.43684
148.6399,-316.0,-4.37841
150.0416,-316.0,-4.32442
151.4418,-316.0,-4.27812
152.8418,-316.0,-4.22737
154.2443,-316.0,-4.18896
155.6447,-316.0,-4.13619
157.0488,-316.0,-4.082
158.4498,-316.0,-4.01427
159.8534,-316.0,-3.94391
161.2542,-316.0,-3.89801
162.6543,-316.0,-3.8224
164.0569,-316.0,-3.76518
165.462,-316.0,-3.69017
166.8621,-316.0,-3.62425
168.2623,-316.0,-3.52923
169.6645,-316.0,-3.46533
171.066,-316.0,-3.37476
172.4674,-316.0,-3.30884
173.8709,-316.0,-3.24576
175.2764,-316.0,-3.15983
176.6796,-316.0,-3.06743
178.0804,-316.0,-3.00152
179.4804,-316.0,-2.88648
180.8826,-316.0,-2.78619
182.283,-316.0,-2.71098
183.6881,-316.0,-2.64021
185.0897,-316.0,-2.55489
186.4904,-316.0,-2.48049
187.891,-316.0,-2.4263
189.2925,-316.0,-2.37757
190.6945,-316.0,-2.29326
192.097,-316.0,-2.2506
193.4998,-316.0,-2.18327
194.9014,-315.999,-2.14203
196.3042,-316.0,-2.09209
197.7051,-316.0,-2.04841
199.1065,-316.0,-2.0011
200.5095,-316.0,-1.96066
201.9135,-316.0,-1.92286
203.3151,-316.0,-1.85876
204.7196,-316.0,-1.82823
206.1228,-316.0,-1.78193
207.5239,-316.0,-1.73786
208.9258,-316.0,-1.70975
210.3284,-316.0,-1.66588
211.7317,-316.0,-1.63049
213.1329,-316.0,-1.58763
214.5329,-316.0,-1.56499
215.9353,-316.0,-1.52152
217.3379,-316.0,-1.49523
218.7436,-316.0,-1.46915
220.143,-316.0,-1.45803
221.543,-316.0,-1.43175
222.9451,-316.0,-1.40526
224.3451,-316.0,-1.38261
225.7466,-316.0,-1.35815
227.1487,-316.0,-1.32418
228.5508,-316.0,-1.32903
229.9556,-316.0,-1.31084
231.3556,-316.0,-1.28152
232.7569,-316.0,-1.27606
234.1605,-316.0,-1.24412
235.5611,-316.0,-1.23401
236.9633,-316.0,-1.22875
238.3649,-316.0,-1.20328
239.7657,-316.0,-1.18892
241.1662,-316.0,-1.19499
242.5682,-316.0,-1.15859
243.9722,-316.0,-1.14646
245.3758,-316.0,-1.14363
246.7756,-316.0,-1.12483
248.1758,-316.0,-1.13312
249.5782,-316.0,-1.11896
250.9791,-316.0,-1.10926
252.3812,-316.0,-1.08864
253.7836,-316.0,-1.07853
255.1905,-316.0,-1.07064
256.5935,-316.0,-1.07468
257.9975,-316.0,-1.05891
259.3988,-316.0,-1.04638
260.8023,-316.0,-1.03324
262.2037,-316.0,-1.03789
263.606,-316.0,-1.02838
265.0058,-316.0,-1.01767
266.4081,-316.0,-1.01241
267.8112,-316.0,-1.0025
269.2145,-316.0,-0.999471
270.619,-316.0,-0.991788
272.0228,-316.0,-0.992395
273.426,-316.0,-0.986531
274.8262,-316.0,-0.973996
276.2277,-316.0,-0.963887
277.6327,-316.0,-0.964089
279.034,-316.0,-0.966111
280.4344,-316.0,-0.963482
281.834,-316.0,-0.91981
283.234,-316.0,-0.936794
284.6375,-316.0,-0.928504
286.04,-316.0,-0.911925
287.442,-316.0,-0.902624
288.8441,-316.0,-0.918395
290.2443,-316.0,-0.898378
291.6442,-316.0,-0.901815
293.0441,-316.0,-0.896154
294.4443,-316.0,-0.882001
295.8467,-316.0,-0.880384
297.2499,-316.0,-0.867242
298.6533,-316.0,-0.854908
300.0542,-316.0,-0.873105
301.4602,-316.0,-0.851471
302.8642,-316.0,-0.852886
304.2662,-316.0,-0.833476
305.6667,-316.0,-0.819323
307.0711,-316.0,-0.823974
308.4722,-316.0,-0.827411
309.8746,-316.0,-0.821143
311.276,-316.0,-0.817706
312.6785,-316.0,-0.808001
314.0819,-316.0,-0.809012
315.4846,-316.0,-0.801127
316.8881,-316.0,-0.805979
318.2904,-316.0,-0.792028
319.6936,-316.0,-0.791826
321.0947,-316.0,-0.783132
322.4979,-316.0,-0.781717
323.902,-316.0,-0.766553
325.3046,-316.0,-0.768777
326.7063,-316.0,-0.7617
328.1068,-316.0,-0.761094
329.5073,-316.0,-0.753613
330.9069,-316.0,-0.753006
332.3109,-316.0,-0.753209
333.7168,-316.0,-0.741077
335.1193,-316.0,-0.750378
336.5226,-316.0,-0.735618
337.925,-316.0,-0.719848
339.3274,-316.0,-0.729351
340.7298,-316.0,-0.727127
342.1309,-316.0,-0.707312
343.5337,-316.0,-0.707514
344.9357,-316.0,-0.693564
346.3351,-316.0,-0.705695
347.7352,-316.0,-0.690126
349.1352,-316.0,-0.694979
350.5387,-316.0,-0.687094
351.9415,-316.0,-0.681635
353.3433,-316.0,-0.684465
354.7459,-316.0,-0.671121
356.1473,-316.0,-0.675367
357.5477,-316.0,-0.666875
358.9478,-316.0,-0.659799
360.349,-316.0,-0.651509
361.7499,-316.0,-0.647667
363.1536,-316.0,-0.656766
364.5578,-316.0,-0.659799
365.9576,-316.0,-0.654137
367.3606,-316.0,-0.643017
368.7649,-316.0,-0.63958
370.1655,-316.0,-0.642815
371.5674,-316.0,-0.639176
372.9679,-316.0,-0.640995
374.3712,-316.0,-0.618957
375.7729,-316.0,-0.637962
377.1757,-316.0,-0.599951
378.5781,-316.0,-0.630684
379.978,-316.0,-0.617339
381.3813,-316.0,-0.615115
382.7867,-316.0,-0.616935
384.1906,-316.0,-0.598738
385.5934,-316.0,-0.599951
386.9948,-316.0,-0.596716
388.3954,-316.0,-0.600558
389.7976,-316.0,-0.593481
391.2016,-316.0,-0.586405
392.6037,-316.0,-0.584585
394.0054,-316.0,-0.58317
395.4082,-316.0,-0.572858
396.1096,-316.0,-0.586607

File: 20231204_1223cut1_highN_1.txt.csv
Time(s),Displacement(mm),Force(N)
0.0,-281.242,2.81053
1.4467,-281.242,2.80547
2.8501,-281.242,2.81194
4.2544,-281.242,2.80749
5.6616,-281.242,2.80305
7.0651,-281.242,2.81113
8.4691,-281.242,2.80588
9.8725,-281.242,2.82185
11.274,-281.242,2.81538
12.6799,-281.242,2.81801
14.0826,-281.242,2.81942
15.5099,-281.0,2.83256
16.9133,-281.0,2.83398
18.3169,-281.0,2.82832
19.7192,-281.0,2.83378
21.1245,-281.0,2.83034
22.5278,-281.0,2.84833
23.9341,-281.0,2.83863
25.3367,-281.0,2.84005
26.7386,-281.0,2.83701
28.1418,-281.0,2.83681
29.5501,-281.0,2.84631
30.9522,-281.0,2.84227
32.3618,-281.0,2.84126
33.766,-281.0,2.84935
35.1686,-281.0,2.84955
36.5738,-281.0,2.86451
37.9762,-281.0,2.84935
39.3823,-278.557,2.92132
40.7853,-275.747,3.01433
42.1872,-263.469,3.40576
43.5904,-249.421,3.48199
44.9921,-236.568,3.42214
46.3984,-237.422,3.47248
47.8025,-248.197,3.46399
49.2052,-262.245,3.41547
50.6088,-276.246,3.0392
52.0102,-290.293,2.66879
53.4166,-292.532,2.57377
54.8226,-292.532,2.57215
56.2265,-292.532,2.58226
57.6298,-292.532,2.57538
59.0343,-292.532,2.58327
60.4364,-292.532,2.58246
61.8421,-292.532,2.57963
63.2462,-292.532,2.58165
64.6546,-292.532,2.57478
66.0553,-292.532,2.58246
67.4592,-292.532,2.58388
68.8616,-292.532,2.58084
70.2651,-292.532,2.58509
71.6697,-292.532,2.59095
73.0719,-292.532,2.59237
74.4733,-292.532,2.58388
75.8768,-292.532,2.58408
77.2812,-292.532,2.58954
78.6862,-292.532,2.59055
80.0917,-292.532,2.58994
81.4931,-292.532,2.59398
82.8941,-292.532,2.59378
84.2988,-292.532,2.58873
85.7069,-292.532,2.59439
87.1064,-292.532,2.58772
88.51,-292.532,2.59479
89.9129,-292.532,2.59156
91.3198,-292.532,2.59338
92.7235,-292.532,2.59156
94.1281,-292.532,2.59196
95.5318,-292.532,2.58711
96.937,-292.532,2.59035
98.3396,-292.532,2.59318
99.747,-292.532,2.59257
101.1491,-292.532,2.58812
102.5569,-292.532,2.58792
103.9623,-292.532,2.60308
105.3648,-292.532,2.58731
106.7694,-292.532,2.59277
108.1742,-292.532,2.5958
109.5779,-292.532,2.59176
110.9823,-292.532,2.59439
112.3821,-292.532,2.60025
113.7871,-292.532,2.60268
115.1932,-292.532,2.59843
116.5975,-292.532,2.59621
118.0027,-292.532,2.58812
119.4115,-292.532,2.5958
120.8175,-292.532,2.59277
122.2206,-292.532,2.59055
123.6229,-292.532,2.59783
125.0275,-292.532,2.59318
126.4292,-292.532,2.58428
127.8323,-292.532,2.60531
129.2357,-292.532,2.60106
130.6392,-292.532,2.60329
132.0432,-292.532,2.58954
133.4501,-292.532,2.60672
134.8565,-292.532,2.59702
136.2844,-292.0,2.61441
137.6846,-292.0,2.63119
139.0903,-292.0,2.6322
140.4985,-292.0,2.62532
141.9025,-292.0,2.62775
143.305,-292.0,2.62836
144.7113,-292.0,2.61764
146.1145,-292.0,2.61461
147.5205,-292.0,2.62451
148.9265,-292.0,2.62168
150.3341,-292.0,2.62633
151.7374,-292.0,2.63402
153.1375,-292.0,2.61804
154.5407,-292.0,2.61602
155.9467,-292.0,2.62532
157.3498,-292.0,2.62694
158.7514,-292.0,2.63159
160.1561,-292.0,2.61784
161.5592,-292.0,2.63078
162.9626,-292.0,2.62391
164.3668,-292.0,2.62067
165.7728,-292.0,2.62229
167.173,-292.0,2.62088
168.5728,-292.0,2.6233
169.9781,-292.0,2.62553
171.3829,-292.0,2.62371
172.7856,-292.0,2.62573
174.1875,-292.0,2.6231
175.5891,-292.0,2.61986
176.9929,-292.0,2.6324
178.4006,-292.0,2.62775
179.8053,-292.0,2.62654
181.2075,-292.0,2.61703
182.6106,-292.0,2.63361
184.0145,-292.0,2.62532
185.4184,-292.0,2.62836
186.8306,-292.0,2.62573
188.2372,-292.0,2.6328
189.6443,-292.0,2.62128
191.0487,-292.0,2.60794
192.4507,-292.0,2.61643
193.8537,-292.0,2.62997
195.2553,-292.0,2.63058
196.662,-292.0,2.62836
198.0669,-292.0,2.62714
199.4672,-292.0,2.62371
200.8679,-292.0,2.61582
202.2724,-292.0,2.62795
203.6762,-292.0,2.62067
205.0845,-292.0,2.62047
206.485,-292.0,2.6229
207.8898,-292.0,2.62755
209.2918,-292.0,2.6235
210.6987,-292.0,2.62896
212.1014,-292.0,2.63442
213.5069,-292.0,2.63159
214.9093,-292.0,2.63745
216.3111,-292.0,2.6231
217.7355,-295.9,2.61845
219.1388,-300.001,2.01513
220.5424,-300.0,2.0402
221.9456,-300.0,2.04646
223.3517,-300.0,2.04889
224.7575,-300.0,2.059
226.1613,-300.0,2.05233
227.5659,-300.0,2.05455
228.966,-300.0,2.05758
230.3709,-300.0,2.06223
231.793,-308.556,1.3099
233.1969,-316.801,-4.49224
234.6014,-316.8,-8.47025
236.0043,-316.8,-7.76301
237.4107,-316.8,-7.43445
238.8183,-316.8,-7.22822
240.2235,-316.8,-7.06809
241.6292,-316.8,-6.96295
243.0314,-316.8,-6.86166
244.4353,-316.8,-6.77957
245.8399,-316.8,-6.6989
247.2433,-316.8,-6.64289
248.6477,-316.8,-6.58224
250.0507,-316.8,-6.53897
251.4528,-316.8,-6.49408
252.8602,-316.8,-6.44495
254.2626,-316.8,-6.41665
255.6693,-316.8,-6.37298
257.0723,-316.8,-6.34063
258.4748,-316.8,-6.31272
259.8763,-316.8,-6.27775
261.2806,-316.8,-6.25672
262.6839,-316.8,-6.227
264.0871,-316.8,-6.20172
265.4898,-316.8,-6.17625
266.8937,-316.8,-6.15926
268.3002,-316.8,-6.14208
269.709,-316.8,-6.1071
271.114,-316.8,-6.09517
272.5147,-316.8,-6.07657
273.9201,-316.8,-6.05433
275.3207,-316.8,-6.0426
276.7261,-316.8,-6.03108
278.1288,-316.8,-6.00297
279.5317,-316.8,-5.99246
280.9354,-316.8,-5.97831
282.3381,-316.8,-5.96355
283.7437,-316.8,-5.95485
285.1473,-316.8,-5.93625
286.5528,-316.8,-5.92513
287.959,-316.8,-5.91806
289.3622,-316.8,-5.89925
290.7662,-316.8,-5.89157
292.17,-316.8,-5.87964
293.5748,-316.8,-5.85861
294.9794,-316.8,-5.85194
296.381,-316.8,-5.84406
297.7844,-316.8,-5.83031
299.1893,-316.8,-5.82606
300.5943,-316.8,-5.81373
301.9983,-316.8,-5.79432
303.3999,-316.8,-5.77915
304.8037,-316.8,-5.78219
306.2069,-316.8,-5.76824
307.6125,-316.8,-5.76197
309.0169,-316.8,-5.74761
310.4214,-316.8,-5.74377
311.8246,-316.8,-5.73609
313.2277,-316.8,-5.72942
314.6323,-316.8,-5.71809
316.0375,-316.8,-5.71223
317.4412,-316.8,-5.70131
318.844,-316.8,-5.69767
320.2466,-316.8,-5.68918
321.6472,-316.8,-5.68756
323.0536,-316.8,-5.66795
324.4561,-316.8,-5.66654
325.8555,-316.8,-5.66168
327.2593,-316.8,-5.65178
328.6648,-316.8,-5.64935
330.0676,-316.8,-5.635
331.4719,-316.8,-5.62913
332.8731,-316.8,-5.62751
334.2748,-316.8,-5.62327
335.6789,-316.8,-5.60891
337.0854,-316.8,-5.60891
338.4885,-316.8,-5.59739
339.8915,-316.8,-5.59638
341.2916,-316.8,-5.58586
342.6965,-316.8,-5.58121
344.102,-316.8,-5.5703
345.5045,-316.8,-5.56888
346.9075,-316.8,-5.5709
348.3111,-316.8,-5.56544
349.7158,-316.8,-5.5519
351.1205,-316.8,-5.54644
352.5249,-316.8,-5.54138
353.9247,-316.8,-5.53552
355.3287,-316.8,-5.53714
356.7298,-316.8,-5.52723
358.1345,-316.8,-5.52036
359.5388,-316.8,-5.51914
360.9415,-316.8,-5.50984
362.3452,-316.8,-5.50944
363.75,-316.8,-5.50236
365.1552,-316.8,-5.49933
366.5623,-316.8,-5.49367
367.9665,-316.8,-5.48518
369.3689,-316.8,-5.48012
370.7701,-316.8,-5.46698
372.1731,-316.8,-5.4781
373.5758,-316.8,-5.47446
374.9823,-316.8,-5.47587
376.3885,-316.8,-5.45909
377.7905,-316.8,-5.45525
379.1928,-316.8,-5.45181
380.5973,-316.8,-5.45303
382.0026,-316.8,-5.44514
383.4032,-316.8,-5.44069
384.8054,-316.8,-5.43827
386.2104,-316.8,-5.43564
387.6121,-316.8,-5.42513
389.0156,-316.8,-5.43342
390.4206,-316.8,-5.42593
391.822,-316.8,-5.41946
393.229,-316.8,-5.40754
394.6335,-316.8,-5.41421
396.0361,-316.8,-5.40187
397.4393,-316.8,-5.40005
398.8402,-316.8,-5.40127
400.2434,-316.8,-5.39338
401.6446,-316.8,-5.38813
403.0474,-316.8,-5.38995
404.4512,-316.8,-5.38388
405.8556,-316.8,-5.38267
407.2578,-316.8,-5.37984
408.6627,-316.8,-5.3762
410.0689,-316.8,-5.37215
411.4712,-316.8,-5.37054
412.8735,-316.8,-5.36467
414.2765,-316.8,-5.35861
414.5774,-316.8,-5.36245