Folder: RRI/Tinius-Olsen_Levitation_force/Preprocessed_measures (part 4)

File: 20231204_1640GDBCOs2_sl6_1.txt.csv
Time(s),Displacement(mm),Force(N)
0.0,-258.703,3.06184
0.6639,-258.207,3.09015
1.2662,-258.208,3.08307
1.8671,-258.208,3.08206
2.4677,-258.208,3.08489
3.0691,-258.208,3.08691
3.6693,-258.208,3.08752
4.27,-258.208,3.0944
4.8722,-258.208,3.09197
5.475,-258.208,3.08388
6.0984,-258.001,3.07741
6.7003,-258.0,3.09217
7.3009,-258.0,3.09318
7.9031,-258.0,3.09561
8.5039,-258.0,3.09743
9.1063,-258.0,3.0948
9.7065,-258.0,3.09925
10.3086,-258.0,3.0944
10.9108,-258.0,3.09844
11.5112,-258.0,3.09541
12.1138,-258.0,3.08954
12.7159,-258.0,3.09237
13.3159,-258.0,3.10572
13.9372,-259.893,3.0582
14.5385,-260.0,3.03192
15.1388,-260.0,3.04041
15.7431,-260.0,3.0297
16.3462,-260.0,3.03071
16.9472,-260.0,3.03657
17.5477,-260.0,3.0303
18.1512,-260.0,3.03313
18.7509,-260.0,3.03131
19.353,-260.0,3.03718
19.9531,-260.0,3.03495
20.5545,-260.0,3.03515
21.156,-260.0,3.03758
21.7591,-260.0,3.0392
22.3623,-260.0,3.03718
22.9648,-260.0,3.03475
23.5673,-260.0,3.0392
24.1696,-260.0,3.04041
24.7707,-260.0,3.03859
25.3728,-260.0,3.03152
25.9778,-260.0,3.05052
26.5802,-260.0,3.03596
27.203,-261.202,3.0204
27.8043,-265.238,2.91121
28.4074,-269.237,2.8732
29.0103,-273.271,2.8542
29.6126,-277.269,2.82973
30.2127,-281.303,2.80628
30.8167,-285.301,2.74562
31.4196,-289.335,2.66273
32.0206,-293.333,2.51432
32.6231,-297.332,2.22216
33.2243,-301.371,1.66069
33.8244,-305.369,0.459505
34.4261,-309.369,-2.16973
35.0281,-313.368,-7.61319
35.6287,-316.801,-16.8747
36.2285,-316.8,-15.8784
36.8278,-316.8,-15.3862
37.4303,-316.8,-15.1121
38.0311,-316.8,-14.9186
38.6337,-316.8,-14.7764
39.2333,-316.8,-14.658
39.8349,-316.8,-14.5579
40.4373,-316.8,-14.4802
41.0379,-316.8,-14.3977
41.6399,-316.8,-14.3421
42.2412,-316.8,-14.2758
42.8433,-316.8,-14.2303
43.4435,-316.8,-14.1745
44.0434,-316.8,-14.1319
44.6445,-316.8,-14.084
45.2457,-316.8,-14.0484
45.8454,-316.8,-14.0077
46.446,-316.8,-13.981
47.0469,-316.8,-13.9558
47.6485,-316.8,-13.9184
48.2493,-316.8,-13.8868
48.8524,-316.8,-13.8613
49.456,-316.8,-13.8318
50.0597,-316.8,-13.8144
50.6596,-316.8,-13.7847
51.2599,-316.8,-13.7655
51.8633,-316.8,-13.7386
52.4653,-316.8,-13.7204
53.0674,-316.8,-13.6962
53.6674,-316.8,-13.6768
54.269,-316.8,-13.6575
54.8713,-316.8,-13.6373
55.4712,-316.8,-13.6209
56.0713,-316.8,-13.607
56.6711,-316.8,-13.5888
57.2732,-316.8,-13.5706
57.8751,-316.8,-13.5514
58.4785,-316.8,-13.5419
59.0794,-316.8,-13.529
59.6827,-316.8,-13.5178
60.2835,-316.8,-13.497
60.8865,-316.8,-13.4867
61.4877,-316.8,-13.4812
62.0883,-316.8,-13.4616
62.689,-316.8,-13.4487
63.2913,-316.8,-13.439
63.8945,-316.8,-13.4216
64.495,-316.8,-13.4129
65.096,-316.8,-13.4026
65.6994,-316.8,-13.3955
66.3014,-316.8,-13.3759
66.9046,-316.8,-13.3704
67.5056,-316.8,-13.3506
68.109,-316.8,-13.345
68.7116,-316.8,-13.3353
69.3136,-316.8,-13.3266
69.9138,-316.8,-13.3183
70.5138,-316.8,-13.3124
71.1135,-316.8,-13.3029
71.7136,-316.8,-13.2879
72.3148,-316.8,-13.289
72.9169,-316.8,-13.2702
73.52,-316.8,-13.2629
74.1235,-316.8,-13.2538
74.7253,-316.8,-13.2469
75.3269,-316.8,-13.2441
75.93,-316.8,-13.2362
76.5312,-316.8,-13.2166
77.1315,-316.8,-13.2091
77.7317,-316.8,-13.1988
78.3314,-316.8,-13.1957
78.9327,-316.8,-13.1883
79.5352,-316.8,-13.1828
80.1358,-316.8,-13.1711
80.7385,-316.8,-13.1681
81.3417,-316.8,-13.1602
81.9435,-316.8,-13.1494
82.5466,-316.8,-13.1426
83.148,-316.8,-13.1337
83.7482,-316.8,-13.128
84.3504,-316.8,-13.1217
84.9513,-316.8,-13.1197
85.5534,-316.8,-13.1147
86.1537,-316.8,-13.1112
86.754,-316.8,-13.1076
87.3543,-316.8,-13.1005
87.9557,-316.8,-13.0947
88.5557,-316.8,-13.085
89.1568,-316.8,-13.07
89.7584,-316.8,-13.0643
90.3637,-316.8,-13.0639
90.9643,-316.8,-13.0597
91.5651,-316.8,-13.0518
92.1661,-316.8,-13.0471
92.7673,-316.8,-13.0368
93.3703,-316.8,-13.0326
93.9715,-316.8,-13.0314
94.5736,-316.8,-13.0277
95.1765,-316.8,-13.0186
95.7793,-316.8,-13.0101
96.3813,-316.8,-13.0116
96.9828,-316.8,-13.0073
97.5853,-316.8,-13.001
98.1901,-316.8,-12.9901
98.7911,-316.8,-12.9958
99.3916,-316.8,-12.9905
99.9939,-316.8,-12.9818
100.5938,-316.8,-12.9772
101.1947,-316.8,-12.9744
101.7951,-316.8,-12.9628
102.3959,-316.8,-12.959
102.9985,-316.8,-12.9515
103.6005,-316.8,-12.9529
104.2019,-316.8,-12.9442
104.8037,-316.8,-12.9355
105.4047,-316.8,-12.9347
106.0067,-316.8,-12.9353
106.6073,-316.8,-12.9196
107.2091,-316.8,-12.9159
107.8086,-316.8,-12.9188
108.411,-316.8,-12.9129
109.0117,-316.8,-12.9082
109.6128,-316.8,-12.9119
110.2141,-316.8,-12.8947
110.8147,-316.8,-12.8941
111.4179,-316.8,-12.8862
112.0199,-316.8,-12.8858
112.621,-316.8,-12.8791
113.2219,-316.8,-12.8814
113.8252,-316.8,-12.8706
114.4265,-316.8,-12.8686
115.0285,-316.8,-12.8674
115.6313,-316.8,-12.8591
116.2316,-316.8,-12.8571
116.8341,-316.8,-12.8537
117.4359,-316.8,-12.8506
118.0376,-316.8,-12.8484
118.6385,-316.8,-12.8389
119.244,-316.8,-12.8407
119.8459,-316.8,-12.8346
120.4486,-316.8,-12.8353
121.0507,-316.8,-12.8264
121.6515,-316.8,-12.8183
122.2529,-316.8,-12.8223
122.8541,-316.8,-12.8213
123.4541,-316.8,-12.8156
124.0542,-316.8,-12.8162
124.656,-316.8,-12.8136
125.258,-316.8,-12.8132
125.8589,-316.8,-12.8021
126.4596,-316.8,-12.8053
127.0625,-316.8,-12.8007
127.6639,-316.8,-12.791
128.2664,-316.8,-12.7887
128.8681,-316.8,-12.7871
129.4691,-316.8,-12.7811
130.0696,-316.8,-12.7792
130.6702,-316.8,-12.7819
131.2703,-316.8,-12.7714
131.8718,-316.8,-12.76
132.4727,-316.8,-12.7554
133.0741,-316.8,-12.7578
133.674,-316.8,-12.7623
134.276,-316.8,-12.7463
134.8767,-316.8,-12.7526
135.4786,-316.8,-12.7513
136.0809,-316.8,-12.7602
136.6817,-316.8,-12.7441
137.2836,-316.8,-12.7418
137.8843,-316.8,-12.7453
138.4843,-316.8,-12.735
139.0854,-316.8,-12.7202
139.6869,-316.8,-12.724
140.2903,-316.8,-12.719
140.8947,-316.8,-12.7206
141.4964,-316.8,-12.72
142.0968,-316.8,-12.7141
142.6971,-316.8,-12.7202
143.2979,-316.8,-12.7111
143.8987,-316.8,-12.7117
144.5015,-316.8,-12.7
145.102,-316.8,-12.7044
145.704,-316.8,-12.7006
146.3048,-316.8,-12.6923
146.907,-316.8,-12.6929
147.5095,-316.8,-12.6976
148.1102,-316.8,-12.6879
148.7133,-316.8,-12.685
149.3142,-316.8,-12.6812
149.9145,-316.8,-12.6862
150.5153,-316.8,-12.6788
151.1163,-316.8,-12.6773
151.7171,-316.8,-12.6775
152.317,-316.8,-12.667
152.9184,-316.8,-12.6674
153.5202,-316.8,-12.6769
154.1261,-316.8,-12.6741
154.7273,-316.8,-12.6596
155.3289,-316.8,-12.6626
155.9309,-316.8,-12.6515
156.5319,-316.8,-12.6547
157.1349,-316.8,-12.6533
157.7359,-316.8,-12.6482
158.3377,-316.8,-12.6438
158.938,-316.8,-12.65
159.5415,-316.8,-12.6393
160.1422,-316.8,-12.6438
160.7442,-316.8,-12.644
161.344,-316.8,-12.6337
161.9461,-316.8,-12.631
162.5497,-316.8,-12.6288
163.1703,-314.233,-12.6306
163.7738,-310.234,-1.91679
164.3744,-306.234,2.23369
164.9743,-302.201,3.37746
165.5756,-298.2,3.57277
166.1773,-294.201,3.49129
166.7769,-290.197,3.36067
167.3777,-286.196,3.25513
167.9797,-282.197,3.16557
168.5824,-278.163,3.1037
169.1842,-274.164,3.0675
169.784,-270.163,3.0303
170.3847,-266.799,3.01615
170.9859,-266.799,3.01918
171.5869,-266.8,3.03232
172.1885,-266.8,3.03778
172.7909,-266.8,3.02687
173.3904,-266.8,3.01878
173.9929,-266.8,3.021
174.5923,-266.8,3.02222
175.1966,-266.8,3.01756
175.7972,-266.8,3.01959
176.3997,-266.8,3.02323
177.0023,-266.8,3.02565
177.6047,-266.8,3.02424
178.2048,-266.8,3.01756
178.8051,-266.8,3.02141
179.4078,-266.8,3.0303
179.6081,-266.8,3.02403

File: 20231204_1644GDBCOs2_sl6_2.txt.csv
Time(s),Displacement(mm),Force(N)
0.0,-266.962,2.97591
1.0251,-273.366,3.01534
2.0281,-280.067,3.06083
3.0294,-286.735,3.13807
4.0319,-293.439,3.22521
5.0358,-300.139,3.17143
6.0421,-306.837,1.98379
7.0456,-313.505,-5.025
8.0485,-316.801,-13.5067
9.0534,-316.8,-13.311
10.0595,-316.8,-13.219
11.0596,-316.8,-13.1592
12.0617,-316.8,-13.1096
13.0656,-316.8,-13.072
14.0713,-316.8,-13.049
15.0768,-316.8,-13.0237
16.0774,-316.8,-12.9996
17.0789,-316.8,-12.9903
18.0805,-316.8,-12.9608
19.0828,-316.8,-12.9412
20.0851,-316.8,-12.9274
21.0899,-316.8,-12.9109
22.0938,-316.8,-12.9052
23.0968,-316.8,-12.886
24.0983,-316.8,-12.8739
25.099,-316.8,-12.87
26.0998,-316.8,-12.8539
27.101,-316.8,-12.8488
28.1018,-316.8,-12.8336
29.1039,-316.8,-12.8278
30.106,-316.8,-12.8183
31.1092,-316.8,-12.8073
32.1108,-316.8,-12.7999
33.113,-316.8,-12.7908
34.1203,-316.8,-12.7797
35.1207,-316.8,-12.776
36.122,-316.8,-12.7681
37.1221,-316.8,-12.7576
38.1224,-316.8,-12.7562
39.1248,-316.8,-12.7362
40.1247,-316.8,-12.7366
41.1279,-316.8,-12.7289
42.1299,-316.8,-12.722
43.1313,-316.8,-12.718
44.1329,-316.8,-12.7135
45.1358,-316.8,-12.7042
46.1379,-316.8,-12.7034
47.1395,-316.8,-12.6957
48.1408,-316.8,-12.6891
49.1419,-316.8,-12.685
50.1451,-316.8,-12.6767
51.1458,-316.8,-12.6735
52.1483,-316.8,-12.6717
53.1479,-316.8,-12.6579
54.1518,-316.8,-12.6515
55.1538,-316.8,-12.6533
56.1552,-316.8,-12.6511
57.1566,-316.8,-12.6383
58.1597,-316.8,-12.6351
59.1641,-316.8,-12.6405
60.1654,-316.8,-12.6264
61.169,-316.8,-12.6228
62.1713,-316.8,-12.6076
63.1734,-316.8,-12.6074
64.1746,-316.8,-12.6135
65.1767,-316.8,-12.6054
66.1797,-316.8,-12.6023
67.1804,-316.8,-12.6025
68.1822,-316.8,-12.5914
69.1827,-316.8,-12.592
70.184,-316.8,-12.5853
71.1866,-316.8,-12.5799
72.1891,-316.8,-12.5779
73.1919,-316.8,-12.5682
74.1957,-316.8,-12.5734
75.197,-316.8,-12.5623
76.1988,-316.8,-12.5601
77.2016,-316.8,-12.5589
78.2038,-316.8,-12.5572
79.2055,-316.8,-12.5516
80.2064,-316.8,-12.5498
81.2084,-316.8,-12.5435
82.2128,-316.8,-12.5409
83.2171,-316.8,-12.5368
84.2207,-316.8,-12.5324
85.2236,-316.8,-12.5257
86.2267,-316.8,-12.5249
87.2264,-316.8,-12.5217
88.228,-316.8,-12.5198
89.229,-316.8,-12.5124
90.23,-316.8,-12.518
91.2329,-316.8,-12.5087
92.2333,-316.8,-12.5099
93.2362,-316.8,-12.502
94.2363,-316.8,-12.4992
95.2403,-316.8,-12.4966
96.2429,-316.8,-12.498
97.2429,-316.8,-12.4903
98.2434,-316.8,-12.4881
99.247,-316.8,-12.4859
100.2485,-316.8,-12.4739
101.2527,-316.8,-12.4794
102.2533,-316.8,-12.4808
103.2544,-316.8,-12.4657
104.2572,-316.8,-12.4677
105.2604,-316.8,-12.462
106.2626,-316.8,-12.4644
107.2634,-316.8,-12.4608
108.2647,-316.8,-12.4612
109.2669,-316.8,-12.4533
110.2683,-316.8,-12.4606
111.2706,-316.8,-12.4466
112.2732,-316.8,-12.444
113.2743,-316.8,-12.4456
114.2757,-316.8,-12.4363
115.2764,-316.8,-12.4218
116.2798,-316.8,-12.4361
117.2807,-316.8,-12.4406
118.2827,-316.8,-12.4285
119.2843,-316.8,-12.4315
120.2838,-316.8,-12.4147
121.2877,-316.8,-12.4272
122.2907,-316.8,-12.4179
123.2925,-316.8,-12.4149
124.2944,-316.8,-12.4139
125.298,-316.8,-12.4129
126.2976,-316.8,-12.4096
127.3027,-316.8,-12.4018
128.3052,-316.8,-12.4094
129.3076,-316.8,-12.4052
130.3114,-316.8,-12.3979
131.3108,-316.8,-12.3963
132.3132,-316.8,-12.4016
133.3152,-316.8,-12.3933
134.3178,-316.8,-12.3961
135.3208,-316.8,-12.387
136.3231,-316.8,-12.3783
137.3273,-316.8,-12.3779
138.3292,-316.8,-12.3757
139.3309,-316.8,-12.3809
140.3328,-316.8,-12.3749
141.3357,-316.8,-12.3757
142.3393,-316.8,-12.3779
143.3394,-316.8,-12.3688
144.3422,-316.8,-12.3694
145.3439,-316.8,-12.3636
146.3495,-316.8,-12.3601
147.3501,-316.8,-12.3567
148.351,-316.8,-12.3502
149.358,-316.8,-12.3565
150.3599,-316.8,-12.353
151.361,-316.8,-12.3553
152.3646,-316.8,-12.3498
153.366,-316.8,-12.3492
154.3693,-316.8,-12.3466
155.371,-316.8,-12.3407
156.371,-316.8,-12.3431
157.3734,-316.8,-12.3472
158.3744,-316.8,-12.3391
159.3753,-316.8,-12.3387
160.3789,-316.8,-12.3356
161.3812,-316.8,-12.3261
162.3852,-316.8,-12.3229
163.386,-316.8,-12.3243
164.3867,-316.8,-12.3217
165.3876,-316.8,-12.3255
166.3891,-316.8,-12.316
167.3921,-316.8,-12.3239
168.3939,-316.8,-12.3168
169.3956,-316.8,-12.3183
170.3963,-316.8,-12.3128
171.3981,-316.8,-12.3162
172.3991,-316.8,-12.317
173.402,-316.8,-12.3144
174.4048,-316.8,-12.3047
175.4075,-316.8,-12.3029
176.4093,-316.8,-12.3061
177.4103,-316.8,-12.2999
178.4115,-316.8,-12.3025
179.415,-316.8,-12.2995
180.4169,-316.8,-12.2972
181.4191,-316.8,-12.2936
182.4199,-316.8,-12.2922
183.4211,-316.8,-12.2875
184.4235,-316.8,-12.2875
185.4241,-316.8,-12.2803
186.4252,-316.8,-12.2833
187.427,-316.8,-12.2805
188.4279,-316.8,-12.2776
189.4298,-316.8,-12.2811
190.4299,-316.8,-12.2803
191.433,-316.8,-12.2823
192.4374,-316.8,-12.2746
193.4406,-316.8,-12.2774
194.441,-316.8,-12.2645
195.4458,-316.8,-12.2724
196.4472,-316.8,-12.2627
197.4494,-316.8,-12.2705
198.4512,-316.8,-12.2693
199.4531,-316.8,-12.2592
200.4573,-316.8,-12.2621
201.4599,-316.8,-12.2501
202.4637,-316.8,-12.2497
203.4635,-316.8,-12.2445
204.4669,-316.8,-12.2633
205.4688,-316.8,-12.2554
206.47,-316.8,-12.2562
207.4729,-316.8,-12.2477
208.4794,-316.8,-12.2497
209.4794,-316.8,-12.2521
210.4831,-316.8,-12.2493
211.4838,-316.8,-12.2396
212.4852,-316.8,-12.2422
213.4881,-316.8,-12.2398
214.4903,-316.8,-12.2339
215.4963,-316.8,-12.2426
216.4998,-316.8,-12.2257
217.4993,-316.8,-12.2368
218.5013,-316.8,-12.2289
219.504,-316.8,-12.2319
220.5053,-316.8,-12.2299
221.5093,-316.8,-12.2285
222.5123,-316.8,-12.2253
223.5134,-316.8,-12.2204
224.514,-316.8,-12.2204
225.5146,-316.8,-12.2234
226.5165,-316.8,-12.2149
227.5182,-316.8,-12.2174
228.5195,-316.8,-12.2158
229.5217,-316.8,-12.2186
230.5235,-316.8,-12.2145
231.5239,-316.8,-12.2153
232.5257,-316.8,-12.2081
233.5278,-316.8,-12.2151
234.5331,-316.8,-12.2079
235.535,-316.8,-12.2036
236.5375,-316.8,-12.2024
237.5391,-316.8,-12.2048
238.5418,-316.8,-12.2024
239.5417,-316.8,-12.1895
240.5435,-316.8,-12.1899
241.545,-316.8,-12.1913
242.5463,-316.8,-12.1913
243.5511,-316.8,-12.1915
244.5517,-316.8,-12.1909
245.5518,-316.8,-12.1889
246.5542,-316.8,-12.183
247.5569,-316.8,-12.1832
248.5605,-316.8,-12.1794
249.5629,-316.8,-12.18
250.5642,-316.8,-12.1879
251.5642,-316.8,-12.1887
252.5656,-316.8,-12.1769
253.5697,-316.8,-12.1666
254.5707,-316.8,-12.1864
255.572,-316.8,-12.1713
256.5722,-316.8,-12.1757
257.572,-316.8,-12.1699
258.5749,-316.8,-12.1707
259.5757,-316.8,-12.1713
260.5814,-316.8,-12.1624
261.5837,-316.8,-12.1672
262.5878,-316.8,-12.1616
263.5898,-316.8,-12.1658
264.5903,-316.8,-12.1646
265.592,-316.8,-12.1541
266.5938,-316.8,-12.1543
267.5938,-316.8,-12.1599
268.5983,-316.8,-12.1543
269.6021,-316.8,-12.1504
270.6043,-316.8,-12.1531
271.6272,-314.885,-12.1496
272.6292,-308.22,0.422909
273.6292,-301.555,3.5386
274.6301,-294.887,3.60471
275.6329,-288.185,3.3629
276.6362,-281.484,3.19933
277.6391,-274.819,3.09237
278.6422,-268.119,3.0489
279.6448,-266.8,3.09581
280.648,-266.8,3.09601
281.4494,-266.8,3.09096

File: 20231204_1649GDBCOs2_sl6_3.txt.csv
Time(s),Displacement(mm),Force(N)
0.0,-266.928,3.05335
0.4203,-269.357,3.03374
0.8213,-272.023,3.03617
1.2233,-274.689,3.04466
1.6255,-277.39,3.05315
2.0272,-280.055,3.07923
2.4276,-282.721,3.11138
2.8271,-285.387,3.14211
3.2281,-288.053,3.19246
3.6294,-290.759,3.2339
4.0306,-293.424,3.26908
4.4317,-296.09,3.30487
4.8343,-298.791,3.27798
5.235,-301.46,3.1874
5.6358,-304.125,2.87907
6.0376,-306.791,2.17324
6.4373,-309.457,0.653805
6.8389,-312.158,-2.29488
7.2414,-314.823,-7.70639
7.6421,-316.801,-13.3435
8.0424,-316.8,-13.0647
8.4433,-316.8,-12.9596
8.8439,-316.8,-12.8925
9.2433,-316.8,-12.8498
9.6461,-316.8,-12.813
10.0461,-316.8,-12.7811
10.4473,-316.8,-12.7564
10.8473,-316.8,-12.7433
11.2485,-316.8,-12.7172
11.6483,-316.8,-12.7079
12.0487,-316.8,-12.6879
12.4487,-316.8,-12.6769
12.8494,-316.8,-12.6646
13.2493,-316.8,-12.6509
13.6509,-316.8,-12.6472
14.0508,-316.8,-12.6345
14.4511,-316.8,-12.623
14.8517,-316.8,-12.6092
15.2547,-316.8,-12.6056
15.6546,-316.8,-12.6015
16.0559,-316.8,-12.5866
16.4553,-316.8,-12.5754
16.8558,-316.8,-12.5734
17.2562,-316.8,-12.5676
17.6558,-316.8,-12.5514
18.0553,-316.8,-12.5566
18.4567,-316.8,-12.5467
18.8571,-316.8,-12.5467
19.2573,-316.8,-12.5433
19.6599,-316.8,-12.5326
20.0596,-316.8,-12.5291
20.4616,-316.8,-12.5225
20.8614,-316.8,-12.5277
21.2637,-316.8,-12.5132
21.6648,-316.8,-12.5045
22.0665,-316.8,-12.5081
22.467,-316.8,-12.4992
22.8675,-316.8,-12.4934
23.2678,-316.8,-12.4881
23.6698,-316.8,-12.4863
24.0696,-316.8,-12.4798
24.4695,-316.8,-12.4748
24.871,-316.8,-12.4677
25.2715,-316.8,-12.4705
25.6719,-316.8,-12.4644
26.0736,-316.8,-12.4616
26.4756,-316.8,-12.4602
26.8771,-316.8,-12.4594
27.278,-316.8,-12.4525
27.6791,-316.8,-12.4537
28.0788,-316.8,-12.4485
28.4794,-316.8,-12.4458
28.8794,-316.8,-12.4428
29.2794,-316.8,-12.4404
29.6795,-316.8,-12.4335
30.0795,-316.8,-12.4333
30.4823,-316.8,-12.4278
30.8815,-316.8,-12.4319
31.2831,-316.8,-12.4222
31.6827,-316.8,-12.4244
32.0844,-316.8,-12.4256
32.4846,-316.8,-12.4137
32.8873,-316.8,-12.4135
33.2865,-316.8,-12.4101
33.687,-316.8,-12.4058
34.0877,-316.8,-12.4117
34.4873,-316.8,-12.409
34.8883,-316.8,-12.4022
35.2875,-316.8,-12.4131
35.6887,-316.8,-12.4048
36.09,-316.8,-12.4022
36.4897,-316.8,-12.3919
36.8923,-316.8,-12.3915
37.2919,-316.8,-12.3965
37.6941,-316.8,-12.387
38.0941,-316.8,-12.3838
38.4966,-316.8,-12.3852
38.8981,-316.8,-12.3761
39.2992,-316.8,-12.3747
39.7028,-316.8,-12.3769
40.1027,-316.8,-12.3789
40.5026,-316.8,-12.3702
40.9049,-316.8,-12.3765
41.305,-316.8,-12.365
41.7066,-316.8,-12.3613
42.1083,-316.8,-12.3607
42.5092,-316.8,-12.3601
42.9093,-316.8,-12.3603
43.3093,-316.8,-12.3577
43.709,-316.8,-12.3502
44.1093,-316.8,-12.3609
44.5096,-316.8,-12.354
44.9112,-316.8,-12.3538
45.3132,-316.8,-12.3516
45.7133,-316.8,-12.3494
46.1153,-316.8,-12.349
46.5172,-316.8,-12.3441
46.9166,-316.8,-12.3415
47.3175,-316.8,-12.3443
47.7178,-316.8,-12.3375
48.1188,-316.8,-12.3431
48.5198,-316.8,-12.3365
48.9196,-316.8,-12.3462
49.3199,-316.8,-12.3365
49.7199,-316.8,-12.3419
50.1214,-316.8,-12.3322
50.5219,-316.8,-12.331
50.9215,-316.8,-12.3249
51.3216,-316.8,-12.3259
51.7232,-316.8,-12.3185
52.1236,-316.8,-12.3217
52.5255,-316.8,-12.3134
52.9251,-316.8,-12.3211
53.3251,-316.8,-12.313
53.7271,-316.8,-12.316
54.1277,-316.8,-12.3156
54.5277,-316.8,-12.3108
54.9278,-316.8,-12.3071
55.3286,-316.8,-12.3152
55.7296,-316.8,-12.3082
56.1299,-316.8,-12.3132
56.5299,-316.8,-12.31
56.9297,-316.8,-12.3023
57.3322,-316.8,-12.3063
57.732,-316.8,-12.3043
58.1351,-316.8,-12.3088
58.5368,-316.8,-12.2986
58.9383,-316.8,-12.3045
59.3399,-316.8,-12.2997
59.741,-316.8,-12.2999
60.1421,-316.8,-12.2997
60.5435,-316.8,-12.2982
60.9441,-316.8,-12.2956
61.3451,-316.8,-12.2908
61.7464,-316.8,-12.2877
62.1461,-316.8,-12.2871
62.5469,-316.8,-12.2881
62.9495,-316.8,-12.2908
63.3488,-316.8,-12.2906
63.7499,-316.8,-12.2861
64.1505,-316.8,-12.2833
64.55,-316.8,-12.28
64.9508,-316.8,-12.2803
65.3521,-316.8,-12.2823
65.7527,-316.8,-12.2803
66.1537,-316.8,-12.2734
66.5556,-316.8,-12.2728
66.9559,-316.8,-12.2645
67.3577,-316.8,-12.272
67.7582,-316.8,-12.2689
68.1584,-316.8,-12.2623
68.5614,-316.8,-12.2592
68.9618,-316.8,-12.2655
69.3636,-316.8,-12.2663
69.7631,-316.8,-12.2655
70.1636,-316.8,-12.2621
70.5677,-316.8,-12.2667
70.9698,-316.8,-12.2616
71.3701,-316.8,-12.253
71.7698,-316.8,-12.2519
72.1699,-316.8,-12.2548
72.5713,-316.8,-12.2566
72.971,-316.8,-12.2475
73.3707,-316.8,-12.2566
73.7735,-316.8,-12.2526
74.1736,-316.8,-12.2538
74.5735,-316.8,-12.2588
74.9749,-316.8,-12.2485
75.376,-316.8,-12.2507
75.7792,-316.8,-12.2463
76.179,-316.8,-12.2513
76.5792,-316.8,-12.2493
76.9794,-316.8,-12.242
77.3788,-316.8,-12.2465
77.779,-316.8,-12.2455
78.1795,-316.8,-12.238
78.5801,-316.8,-12.2392
78.9826,-316.8,-12.2404
79.383,-316.8,-12.2398
79.7818,-316.8,-12.2376
80.1845,-316.8,-12.2331
80.5852,-316.8,-12.2384
80.9869,-316.8,-12.2226
81.3878,-316.8,-12.2319
81.7889,-316.8,-12.2346
82.1918,-316.8,-12.2317
82.5937,-316.8,-12.2295
82.9946,-316.8,-12.2285
83.394,-316.8,-12.2261
83.7955,-316.8,-12.2242
84.1963,-316.8,-12.2253
84.5984,-316.8,-12.2275
85.0013,-316.8,-12.223
85.4041,-316.8,-12.2204
85.8051,-316.8,-12.2214
86.2054,-316.8,-12.2196
86.6064,-316.8,-12.2244
87.0062,-316.8,-12.2196
87.4063,-316.8,-12.2236
87.808,-316.8,-12.2206
88.2112,-316.8,-12.2123
88.6129,-316.8,-12.2174
89.0147,-316.8,-12.218
89.4146,-316.8,-12.2164
89.814,-316.8,-12.222
90.2148,-316.8,-12.2178
90.6157,-316.8,-12.2127
91.0165,-316.8,-12.2109
91.4175,-316.8,-12.2107
91.8175,-316.8,-12.2101
92.2186,-316.8,-12.2103
92.6209,-316.8,-12.2164
93.0226,-316.8,-12.2006
93.4242,-316.8,-12.204
93.8261,-316.8,-12.2048
94.2278,-316.8,-12.2075
94.6289,-316.8,-12.2093
95.03,-316.8,-12.2077
95.4302,-316.8,-12.2034
95.8311,-316.8,-12.204
96.2345,-316.8,-12.1982
96.6371,-316.8,-12.1972
97.0377,-316.8,-12.1976
97.4381,-316.8,-12.1986
97.8393,-316.8,-12.1945
98.2391,-316.8,-12.1978
98.6391,-316.8,-12.1953
99.0418,-316.8,-12.1905
99.443,-316.8,-12.1929
99.8649,-314.892,-9.54002
100.2649,-312.226,-1.992
100.6659,-309.56,1.44718
101.0651,-306.894,2.94336
101.4671,-304.228,3.52505
101.8685,-301.528,3.67285
102.2687,-298.862,3.66638
102.6697,-296.195,3.57984
103.0691,-293.53,3.47572
103.47,-290.861,3.38554
103.8702,-288.195,3.29739
104.2724,-285.529,3.2337
104.6729,-282.863,3.17507
105.0724,-280.197,3.1318
105.4741,-277.497,3.10612
105.8744,-274.831,3.07438
106.276,-272.162,3.05012
106.6763,-269.497,3.06103
107.0792,-266.837,3.10734
107.4821,-266.799,3.13847
107.8853,-266.8,3.13908
108.288,-266.8,3.14009
108.6894,-266.8,3.13766
109.0901,-266.8,3.12796
109.4909,-266.8,3.13908