Folder: RRI/Tinius-Olsen_Levitation_force/Preprocessed_measures (part 2)

File: 20231204_1344cut1_highN_2.txt.csv
Time(s),Displacement(mm),Force(N)
0.0,-281.797,2.77899
1.2642,-281.797,2.79294
2.4637,-281.797,2.7804
3.6658,-281.797,2.77413
4.871,-281.797,2.76908
6.0744,-281.797,2.77858
7.2987,-281.0,2.80163
8.4996,-281.0,2.78647
9.7006,-281.0,2.78424
10.9039,-281.0,2.78505
12.105,-281.0,2.78222
13.3058,-281.0,2.79132
14.5082,-281.0,2.78687
15.7103,-281.0,2.79516
16.912,-281.0,2.79071
18.1169,-281.0,2.79152
19.3199,-281.0,2.79354
20.5228,-281.0,2.79496
21.7249,-281.0,2.78545
22.9292,-281.0,2.78727
24.1547,-280.445,2.84368
25.3568,-280.0,2.79961
26.5632,-280.0,2.79455
27.7685,-280.0,2.79374
28.9713,-280.0,2.79415
30.1729,-280.0,2.81154
31.3776,-280.0,2.81315
32.5795,-280.0,2.79031
33.7813,-280.0,2.81073
34.9833,-280.0,2.80648
36.1845,-280.0,2.7992
37.3891,-280.0,2.79779
38.5914,-280.0,2.80507
39.7925,-280.0,2.80082
40.9975,-280.0,2.80608
42.2021,-280.0,2.79374
43.4051,-280.0,2.80345
44.606,-280.0,2.79597
45.8095,-280.0,2.79637
47.0118,-280.0,2.77919
48.2138,-280.0,2.80345
49.4165,-280.0,2.80123
50.6195,-280.0,2.79941
51.8233,-280.0,2.79435
53.0264,-280.0,2.80042
54.2277,-280.0,2.79091
55.4283,-280.0,2.79536
56.6283,-280.0,2.80689
57.8315,-280.0,2.79779
59.0352,-280.0,2.80911
60.2382,-280.0,2.80648
61.4394,-280.0,2.80042
62.6439,-280.0,2.79941
63.8489,-280.0,2.79496
65.0518,-280.0,2.79981
66.2521,-280.0,2.81336
67.4531,-280.0,2.81356
68.6539,-280.0,2.80123
69.8565,-280.0,2.79071
71.0584,-280.0,2.78303
72.2587,-280.0,2.80871
73.4598,-280.0,2.7893
74.6617,-280.0,2.7988
75.8675,-280.0,2.81356
77.0711,-280.0,2.8263
78.2735,-280.0,2.79455
79.4762,-280.0,2.81255
80.6772,-280.0,2.81113
81.8776,-280.0,2.80224
83.0826,-280.0,2.79658
84.2868,-280.0,2.81639
85.4896,-280.0,2.8178
86.6912,-280.0,2.81538
87.894,-280.0,2.75533
89.0959,-280.0,2.82549
90.299,-280.0,2.81437
91.5015,-280.0,2.77797
92.7027,-280.0,2.77676
93.9029,-280.0,2.78909
95.105,-280.0,2.81275
96.3063,-280.0,2.77474
97.5082,-280.0,2.77939
98.71,-280.0,2.7802
99.9122,-280.0,2.79516
101.115,-280.0,2.78626
102.316,-280.0,2.81336
103.5179,-280.0,2.79071
104.7201,-280.0,2.85117
105.9237,-280.0,2.83984
107.1246,-280.0,2.79941
108.3281,-280.0,2.80871
109.5301,-280.0,2.79516
110.7302,-280.0,2.77252
111.9311,-280.0,2.77777
113.1361,-280.0,2.82751
114.3385,-280.0,2.82731
115.5402,-280.0,2.81983
116.764,-285.245,2.73228
117.9681,-293.278,2.54607
119.1744,-301.315,2.07356
120.3802,-309.347,0.214455
121.5825,-316.802,-6.37277
122.7827,-316.8,-5.80908
123.985,-316.8,-5.39439
125.1866,-316.8,-5.1819
126.39,-316.8,-5.01691
127.5902,-316.8,-4.91643
128.7915,-316.8,-4.84606
129.9977,-316.8,-4.74881
131.2004,-316.8,-4.69301
132.4056,-316.8,-4.65217
133.6082,-316.8,-4.60425
134.8134,-316.8,-4.56563
136.0151,-316.8,-4.51023
137.2174,-316.8,-4.51165
138.4184,-316.8,-4.4698
139.6226,-316.8,-4.43118
140.8227,-316.8,-4.41238
142.0247,-316.8,-4.39337
143.2313,-316.8,-4.35435
144.4343,-316.8,-4.3406
145.6359,-316.8,-4.32301
146.8392,-316.8,-4.30097
148.0403,-316.8,-4.28196
149.2459,-316.8,-4.26114
150.4502,-316.8,-4.25325
151.6514,-316.8,-4.24517
152.8514,-316.8,-4.21828
154.0528,-316.8,-4.20554
155.256,-316.8,-4.19907
156.4569,-316.8,-4.18613
157.6613,-316.8,-4.16652
158.8638,-316.8,-4.1554
160.069,-316.8,-4.14792
161.2725,-316.8,-4.1374
162.4746,-316.8,-4.12305
163.6762,-316.8,-4.10182
164.8783,-316.8,-4.09272
166.0809,-316.8,-4.09494
167.2858,-316.8,-4.09009
168.487,-316.8,-4.06765
169.6881,-316.8,-4.06765
170.8896,-316.8,-4.05248
172.0909,-316.8,-4.04136
173.2909,-316.8,-4.03671
174.4947,-316.8,-4.02195
175.6983,-316.8,-4.01609
176.8995,-316.8,-4.01265
178.1022,-316.8,-4.00133
179.3041,-316.8,-3.98677
180.5078,-316.8,-3.9892
181.7108,-316.8,-3.97687
182.9127,-316.8,-3.97949
184.1131,-316.8,-3.96736
185.3159,-316.8,-3.96029
186.5218,-316.8,-3.95624
187.7257,-316.8,-3.94411
188.9292,-316.8,-3.94573
190.1304,-316.8,-3.9334
191.3328,-316.8,-3.93481
192.5348,-316.8,-3.9243
193.7355,-316.8,-3.91803
194.9368,-316.8,-3.91318
196.1391,-316.8,-3.9063
197.341,-316.8,-3.90044
198.5458,-316.8,-3.89073
199.7487,-316.8,-3.89175
200.9488,-316.8,-3.88891
202.1511,-316.8,-3.88244
203.3535,-316.8,-3.88265
204.5544,-316.8,-3.87658
205.759,-316.8,-3.86789
206.9636,-316.8,-3.86243
208.1672,-316.8,-3.85434
209.371,-316.8,-3.85838
210.5717,-316.8,-3.85434
211.7735,-316.8,-3.83857
212.9769,-316.8,-3.84039
214.1785,-316.8,-3.83352
215.3799,-316.8,-3.82988
216.5813,-316.8,-3.82442
217.7844,-316.8,-3.81977
218.9852,-316.8,-3.8135
220.1901,-316.8,-3.81188
221.3934,-316.8,-3.81168
222.5962,-316.8,-3.79813
223.7994,-316.8,-3.79894
225.0013,-316.8,-3.79106
226.2083,-316.8,-3.79207
227.4105,-316.8,-3.78499
228.6115,-316.8,-3.786
229.8134,-316.8,-3.78479
231.0133,-316.8,-3.77246
232.2162,-316.8,-3.77751
233.4184,-316.8,-3.76659
234.6225,-316.8,-3.76902
235.8252,-316.8,-3.76619
237.0274,-316.8,-3.76275
238.2286,-316.8,-3.76012
239.4315,-316.8,-3.75588
240.6353,-316.8,-3.75406
241.8364,-316.8,-3.7581
243.0392,-316.8,-3.74334
244.2387,-316.8,-3.74193
245.4416,-316.8,-3.73566
246.6425,-316.8,-3.73323
247.8463,-316.8,-3.73141
249.0492,-316.8,-3.73121
250.2501,-316.8,-3.71908
251.4512,-316.8,-3.72636
252.6545,-316.8,-3.71847
253.8565,-316.8,-3.70776
255.0615,-316.8,-3.71322
256.2632,-316.8,-3.70675
257.4687,-316.8,-3.70978
258.6691,-316.8,-3.70654
259.8717,-316.8,-3.70654
261.0767,-316.8,-3.69562
262.2785,-316.8,-3.69381
263.4817,-316.8,-3.69765
264.6841,-316.8,-3.68632
265.8846,-316.8,-3.68208
267.0885,-316.8,-3.6839
268.2917,-316.8,-3.68127
269.4952,-316.8,-3.68046
270.6967,-316.8,-3.68349
271.9001,-316.8,-3.67096
273.1017,-316.8,-3.67136
274.3043,-316.8,-3.66712
275.5043,-316.8,-3.6744
276.7038,-316.8,-3.66772
277.9071,-316.8,-3.66408
279.1101,-316.8,-3.66348
280.3119,-316.8,-3.6566
281.5169,-316.8,-3.65397
282.7214,-316.8,-3.65236
283.9221,-316.8,-3.65296
285.1239,-316.8,-3.65054
286.3274,-316.8,-3.64508
287.5326,-316.8,-3.64407
288.7377,-316.8,-3.64427
289.9374,-316.8,-3.64407
291.1415,-316.8,-3.63901
292.3438,-316.8,-3.63638
293.5464,-316.8,-3.63436
294.752,-316.8,-3.62809
295.9558,-316.8,-3.63376
297.1566,-316.8,-3.62648
298.3575,-316.8,-3.62648
299.561,-316.8,-3.62264
300.7669,-316.8,-3.61697
301.973,-316.8,-3.62466
303.1745,-316.8,-3.61313
304.3775,-316.8,-3.60909
305.5797,-316.8,-3.61152
306.7814,-316.8,-3.6099
307.9822,-316.8,-3.60788
309.1871,-316.8,-3.60666
310.3922,-316.8,-3.60868
311.6002,-316.8,-3.6004
312.8016,-316.8,-3.59999
314.006,-316.8,-3.59453
315.2108,-316.8,-3.58907
316.4117,-316.8,-3.59089
317.6141,-316.8,-3.59494
318.8161,-316.8,-3.58725
320.0196,-316.8,-3.58078
321.2235,-316.8,-3.58321
322.4273,-316.8,-3.58382
323.6301,-316.8,-3.57997
324.8334,-316.8,-3.58119
326.0346,-316.8,-3.57937
327.2377,-316.8,-3.57937
328.4388,-316.8,-3.58139
329.6401,-316.8,-3.57977
330.8462,-316.8,-3.56825
332.0503,-316.8,-3.56966
333.2546,-316.8,-3.56663
334.4594,-316.8,-3.56885
335.6615,-316.8,-3.56542
336.8647,-316.8,-3.5638
338.0683,-316.8,-3.57007
339.2702,-316.8,-3.56481
340.4724,-316.8,-3.56016
341.6753,-316.8,-3.56077
342.877,-316.8,-3.55652
344.0778,-316.8,-3.5543
345.2788,-316.8,-3.55025
346.3804,-316.8,-3.54965

File: 20231204_1434YBCOs1_sl9_1.txt.csv
Time(s),Displacement(mm),Force(N)
0.0,-276.6,2.9282
0.4456,-276.6,2.91789
0.8463,-276.6,2.92537
1.2478,-276.6,2.9286
1.648,-276.6,2.92092
2.0477,-276.6,2.92153
2.4482,-276.6,2.92193
2.8477,-276.6,2.92597
3.2493,-276.6,2.93062
3.6524,-276.6,2.92901
4.055,-276.6,2.93062
4.4562,-276.6,2.93244
4.8576,-276.6,2.93204
5.2579,-276.6,2.93204
5.6583,-276.6,2.92517
6.06,-276.6,2.93083
6.4615,-276.6,2.93042
6.8618,-276.6,2.92557
7.262,-276.6,2.93649
7.6619,-276.6,2.93891
8.0623,-276.6,2.9284
8.4634,-276.6,2.94073
8.8642,-276.6,2.92881
9.2643,-276.6,2.93244
9.6663,-276.6,2.92395
10.066,-276.6,2.93184
10.4657,-276.6,2.92537
10.8674,-276.6,2.93972
11.2679,-276.6,2.91101
11.6698,-276.6,2.91
12.0719,-276.6,2.9189
12.4939,-276.0,2.97288
12.8942,-276.0,2.95347
13.2953,-276.0,2.95307
13.6957,-276.0,2.95367
14.0968,-276.0,2.94559
14.4985,-276.0,2.95125
14.8997,-276.0,2.97106
15.3019,-276.0,2.9472
15.7021,-276.0,2.94862
16.1016,-276.0,2.95529
16.5038,-276.0,2.95185
16.9054,-276.0,2.95428
17.3067,-276.0,2.94559
17.7077,-276.0,2.95145
18.1104,-276.163,2.95408
18.5327,-278.562,2.86977
18.9334,-280.001,2.8449
19.3341,-280.001,2.85622
19.7374,-280.0,2.84753
20.138,-280.0,2.85299
20.5379,-280.0,2.83843
20.9375,-280.0,2.82731
21.3404,-280.0,2.82347
21.7405,-280.0,2.8635
22.1414,-280.0,2.85137
22.541,-280.0,2.86107
22.942,-280.0,2.83479
23.343,-280.0,2.84005
23.7432,-280.0,2.83378
24.143,-280.0,2.85339
24.5435,-280.0,2.85946
24.9446,-280.0,2.84995
25.3458,-280.0,2.82367
25.7456,-280.0,2.84186
26.1458,-280.0,2.82347
26.5476,-280.0,2.85966
26.9497,-280.0,2.84186
27.3503,-280.0,2.84914
27.7502,-280.0,2.82205
28.1523,-280.0,2.84409
28.553,-280.0,2.84005
28.9529,-280.0,2.83337
29.3535,-280.0,2.84207
29.753,-280.0,2.83681
30.1547,-280.0,2.84247
30.5559,-280.0,2.84793
30.9559,-280.0,2.84429
31.3559,-280.0,2.84712
31.7559,-280.0,2.86572
32.1559,-280.0,2.8633
32.5782,-281.907,2.82367
32.9798,-284.574,2.77231
33.3834,-287.274,2.73167
33.7838,-289.94,2.67587
34.1838,-292.607,2.62815
34.5855,-295.273,2.54162
34.9852,-297.938,2.44093
35.386,-300.605,2.28585
35.7859,-303.271,2.07133
36.1859,-305.937,1.83093
36.5881,-308.637,1.47933
36.99,-311.303,1.0141
37.3905,-314.003,0.365892
37.7917,-315.641,-0.123601
38.1935,-315.641,0.362455
38.5944,-315.64,0.45627
38.9939,-315.64,0.520363
39.3945,-315.64,0.55898
39.7959,-315.64,0.585669
40.1982,-315.64,0.618221
40.5992,-315.64,0.634396
41.0011,-315.64,0.645314
41.402,-315.64,0.672204
41.8033,-315.64,0.686357
42.2036,-315.64,0.698489
42.6036,-315.64,0.708194
43.0054,-315.64,0.713046
43.4053,-315.64,0.726188
43.806,-315.64,0.741756
44.2062,-315.64,0.744587
44.608,-315.64,0.750248
45.0089,-315.64,0.756112
45.4104,-315.64,0.761773
45.8105,-315.64,0.758336
46.2111,-315.64,0.783609
46.6113,-315.64,0.770467
47.0113,-315.64,0.790281
47.4119,-315.64,0.795336
47.8126,-315.64,0.809287
48.2119,-315.64,0.793314
48.6128,-315.64,0.788664
49.0144,-315.64,0.820205
49.4152,-315.64,0.81697
49.816,-315.64,0.811106
50.2159,-315.64,0.826675
50.6174,-315.64,0.822631
51.0197,-315.64,0.820811
51.4188,-315.64,0.84568
51.8188,-315.64,0.849724
52.2208,-315.64,0.842041
52.6247,-315.64,0.834156
53.0267,-315.64,0.850331
53.4261,-315.64,0.854576
53.8282,-315.64,0.857811
54.2284,-315.64,0.843456
54.6283,-315.64,0.841232
55.0286,-315.64,0.853565
55.4284,-315.64,0.862057
55.8279,-315.64,0.88268
56.2279,-315.64,0.852757
56.628,-315.64,0.884096
57.0306,-315.64,0.86327
57.4318,-315.64,0.866303
57.8315,-315.64,0.880052
58.2315,-315.64,0.883893
58.6323,-315.64,0.898046
59.0344,-315.64,0.881063
59.4362,-315.64,0.890566
59.837,-315.64,0.885511
60.2387,-315.64,0.890768
60.6398,-315.64,0.902697
61.0413,-315.64,0.890566
61.4414,-315.64,0.877019
61.8437,-315.64,0.898855
62.2439,-315.64,0.900473
62.6449,-315.64,0.897642
63.0463,-315.64,0.901484
63.4463,-315.64,0.904112
63.8477,-315.64,0.903505
64.2483,-315.64,0.911795
64.6498,-315.64,0.904921
65.0506,-315.64,0.904516
65.452,-315.64,0.913008
65.8521,-315.64,0.915232
66.2522,-315.64,0.915839
66.6523,-315.64,0.924128
67.0521,-315.64,0.921904
67.4539,-315.64,0.922107
67.8539,-315.64,0.924331
68.2545,-315.64,0.923724
68.6566,-315.64,0.933429
69.056,-315.64,0.922713
69.4563,-315.64,0.926959
69.8573,-315.64,0.932014
70.2588,-315.64,0.928779
70.6586,-315.64,0.932014
71.0594,-315.64,0.932822
71.4607,-315.64,0.933833
71.8603,-315.64,0.944347
72.2617,-315.64,0.941112
72.6622,-315.64,0.932822
73.0642,-315.64,0.950008
73.4661,-315.64,0.943134
73.8664,-315.64,0.935855
74.2663,-315.64,0.945965
74.6662,-315.64,0.942527
75.0664,-315.64,0.941112
75.4663,-315.64,0.945358
75.8672,-315.64,0.951019
76.2673,-315.64,0.943943
76.6683,-315.64,0.944549
77.0683,-315.64,0.950211
77.4698,-315.64,0.950817
77.8704,-315.64,0.95567
78.2714,-315.64,0.962544
78.6724,-315.64,0.954052
79.0713,-315.64,0.95567
79.4729,-315.64,0.953648
79.8742,-315.64,0.959915
80.2756,-315.64,0.962948
80.6759,-315.64,0.959107
81.0764,-315.64,0.969823
81.4779,-315.64,0.959915
81.8786,-315.64,0.961533
82.2785,-315.64,0.967801
82.6786,-315.64,0.966992
83.0799,-315.64,0.970834
83.4799,-315.64,0.973664
83.8804,-315.64,0.967801
84.2824,-315.64,0.970631
84.6849,-315.64,0.967801
85.0844,-315.64,0.976899
85.4863,-315.64,0.972451
85.8875,-315.64,0.977101
86.2876,-315.64,0.969216
86.6873,-315.64,0.974271
87.089,-315.64,0.962544
87.4888,-315.64,0.974675
87.8887,-315.64,0.976293
88.2889,-315.64,0.992872
88.6888,-315.64,0.997522
89.0889,-315.64,0.983369
89.4886,-315.64,0.973462
89.8895,-315.64,0.964161
90.2907,-315.64,0.998129
90.6921,-315.64,0.988424
91.0917,-315.64,0.987615
91.4932,-315.64,0.996107
91.8961,-315.64,0.987817
92.2979,-315.64,0.989232
92.6991,-315.64,0.994489
93.0989,-315.64,0.988828
93.4998,-315.64,0.985997
93.8993,-315.64,0.988424
94.2998,-315.64,0.984178
94.7012,-315.64,0.985593
95.1018,-315.64,0.994287
95.5042,-315.64,0.993681
95.9037,-315.64,0.988828
96.3053,-315.64,0.997118
96.7074,-315.64,1.0046
97.1075,-315.64,0.989839
97.5115,-315.64,0.988828
97.9151,-315.64,1.01147
98.3143,-315.64,1.0143
98.7146,-315.64,0.998533
99.1144,-315.64,1.00783
99.5156,-315.64,0.997926
99.9172,-315.64,0.994489
100.3166,-315.64,1.0046
100.7166,-315.64,1.01107
101.1166,-315.64,1.00035
101.5166,-315.64,1.00622
101.9166,-315.64,0.99914
102.3165,-315.64,1.01188
102.7175,-315.64,1.01147
103.1197,-315.64,1.00601
103.5229,-315.64,1.00379
103.926,-315.64,0.999544
104.3268,-315.64,1.00035
104.7285,-315.64,1.00783
105.1286,-315.64,1.00258
105.5296,-315.64,1.01612
105.9307,-315.64,1.00743
106.3327,-315.64,1.00622
106.7327,-315.64,1.01147
107.1335,-315.64,1.00601
107.5343,-315.64,1.01188
107.9346,-315.64,1.00682
108.3365,-315.64,1.01046

File: 20231204_1527YBCOs1_sl9_2.txt.csv
Time(s),Displacement(mm),Force(N)
0.0,-266.268,2.91566
1.043,-266.268,2.9195
2.0467,-266.268,2.92072
3.048,-266.268,2.91667
4.0487,-266.268,2.91647
5.0529,-266.268,2.92638
6.0739,-266.0,2.92759
7.074,-266.0,2.9284
8.0762,-266.0,2.9284
9.0782,-266.0,2.92294
10.0796,-266.0,2.93042
11.0815,-266.152,2.90212
12.1064,-270.0,2.88817
13.1089,-270.0,2.90009
14.1088,-270.0,2.89302
15.11,-270.0,2.89403
16.1108,-270.0,2.89787
17.1122,-270.0,2.891
18.114,-270.0,2.89039
19.1155,-270.0,2.88837
20.1216,-270.0,2.89241
21.1241,-270.0,2.88675
22.127,-270.0,2.89362
23.1288,-270.0,2.88776
24.1316,-270.0,2.8825
25.1342,-270.0,2.88897
26.1568,-270.58,2.8451
27.1595,-277.247,2.85339
28.1615,-283.946,2.79314
29.1617,-290.611,2.67061
30.1675,-297.313,2.44598
31.1708,-303.978,1.95588
32.174,-310.679,0.916445
33.1772,-315.641,-1.59531
34.1806,-315.64,-1.09773
35.1839,-315.64,-0.975613
36.1881,-315.64,-0.899794
37.1912,-315.64,-0.861985
38.1924,-315.64,-0.818919
39.1965,-315.64,-0.786367
40.1996,-315.64,-0.760487
41.2037,-315.64,-0.734203
42.2046,-315.64,-0.710547
43.209,-315.64,-0.69235
44.2116,-315.64,-0.677187
45.2119,-315.64,-0.662225
46.214,-315.64,-0.643826
47.2161,-315.64,-0.633514
48.2186,-315.64,-0.619361
49.2232,-315.64,-0.608039
50.2244,-315.64,-0.599749
51.2243,-315.64,-0.584181
52.2261,-315.64,-0.57852
53.2297,-315.64,-0.564973
54.232,-315.64,-0.556886
55.2337,-315.64,-0.544957
56.236,-315.64,-0.54152
57.2398,-315.64,-0.532826
58.24,-315.64,-0.530399
59.2413,-315.64,-0.516853
60.2429,-315.64,-0.514629
61.2473,-315.64,-0.508159
62.2491,-315.64,-0.501487
63.2538,-315.64,-0.49441
64.2545,-315.64,-0.493399
65.2545,-315.64,-0.484503
66.2539,-315.64,-0.481875
67.2589,-315.64,-0.473989
68.2623,-315.64,-0.468126
69.2639,-315.64,-0.462667
70.2642,-315.64,-0.459028
71.2657,-315.64,-0.453164
72.2667,-315.64,-0.450131
73.2689,-315.64,-0.440831
74.2694,-315.64,-0.437191
75.2722,-315.64,-0.442246
76.2761,-315.64,-0.433754
77.2789,-315.64,-0.430519
78.281,-315.64,-0.426476
79.2827,-315.64,-0.421623
80.2847,-315.64,-0.417984
81.2894,-315.64,-0.409694
82.2934,-315.64,-0.402011
83.2954,-315.64,-0.404639
84.2975,-315.64,-0.406055
85.2985,-315.64,-0.397765
86.2985,-315.64,-0.394732
87.3026,-315.64,-0.393721
88.3078,-315.64,-0.395339
89.3103,-315.64,-0.386645
90.3103,-315.64,-0.385836
91.3115,-315.64,-0.374312
92.3124,-315.64,-0.372492
93.3142,-315.64,-0.369055
94.3187,-315.64,-0.372694
95.3221,-315.64,-0.368044
96.3246,-315.64,-0.362585
97.3283,-315.64,-0.362585
98.33,-315.64,-0.366022
99.33,-315.64,-0.359956
100.3305,-315.64,-0.359552
101.3345,-315.64,-0.35753
102.3372,-315.64,-0.353689
103.3416,-315.64,-0.349443
104.3466,-315.64,-0.348027
105.3477,-315.64,-0.349847
106.3523,-315.64,-0.346208
107.3525,-315.64,-0.340142
108.3548,-315.64,-0.334279
109.3564,-315.64,-0.331044
110.3593,-315.64,-0.334683
111.3625,-315.64,-0.333066
112.3645,-315.64,-0.330235
113.3679,-315.64,-0.323158
114.3711,-315.64,-0.326191
115.3738,-315.64,-0.318306
116.3767,-315.64,-0.320328
117.3777,-315.64,-0.320126
118.3819,-315.64,-0.315475
119.3877,-315.64,-0.31871
120.3914,-315.64,-0.316082
121.3956,-315.64,-0.31224
122.3959,-315.64,-0.306984
123.3971,-315.64,-0.305164
124.3974,-315.64,-0.305973
125.4017,-315.64,-0.300311
126.408,-315.64,-0.299907
127.4085,-315.64,-0.29829
128.4101,-315.64,-0.295257
129.411,-315.64,-0.300716
130.4128,-315.64,-0.297076
131.4146,-315.64,-0.289798
132.4182,-315.64,-0.285956
133.4193,-315.64,-0.285956
134.4206,-315.64,-0.284136
135.422,-315.64,-0.284541
136.4234,-315.64,-0.286158
137.4249,-315.64,-0.278677
138.4281,-315.64,-0.283934
139.4293,-315.64,-0.27059
140.4338,-315.64,-0.278071
141.435,-315.64,-0.279082
142.4347,-315.64,-0.275038
143.4373,-315.64,-0.276656
144.4383,-315.64,-0.276858
145.4399,-315.64,-0.272612
146.4438,-315.64,-0.266748
147.4457,-315.64,-0.267355
148.4513,-315.64,-0.258661
149.453,-315.64,-0.261896
150.4554,-315.64,-0.260481
151.4553,-315.64,-0.265131
152.4576,-315.64,-0.25765
153.4602,-315.64,-0.253
154.461,-315.64,-0.259268
155.463,-315.64,-0.254213
156.4671,-315.64,-0.255022
157.4693,-315.64,-0.254819
158.472,-315.64,-0.256841
159.4744,-315.64,-0.254819
160.475,-315.64,-0.251584
161.4799,-315.64,-0.253404
162.483,-315.64,-0.251787
163.4831,-315.64,-0.244912
164.4857,-315.64,-0.244508
165.489,-315.64,-0.245115
166.4907,-315.64,-0.242688
167.4948,-315.64,-0.239251
168.4971,-315.64,-0.234601
169.499,-315.64,-0.236016
170.5008,-315.64,-0.237229
171.5055,-315.64,-0.232175
172.5076,-315.64,-0.231972
173.5084,-315.64,-0.227322
174.5093,-315.64,-0.228131
175.5115,-315.64,-0.226716
176.5128,-315.64,-0.222874
177.5155,-315.64,-0.220246
178.5165,-315.64,-0.228131
179.5183,-315.64,-0.21883
180.5212,-315.64,-0.216404
181.5233,-315.64,-0.219639
182.527,-315.64,-0.220043
183.5274,-315.64,-0.213169
184.5277,-315.64,-0.210945
185.5295,-315.64,-0.207306
186.5322,-315.64,-0.215595
187.5354,-315.64,-0.214989
188.536,-315.64,-0.200027
189.5386,-315.64,-0.206093
190.5404,-315.64,-0.20589
191.5426,-315.64,-0.202251
192.5442,-315.64,-0.202453
193.5482,-315.64,-0.206497
194.551,-315.64,-0.199016
195.5531,-315.64,-0.20124
196.5556,-315.64,-0.200431
197.5554,-315.64,-0.199016
198.5556,-315.64,-0.216
199.5604,-315.64,-0.208721
200.5606,-315.352,-0.199218
201.5643,-313.341,3.72279
202.5644,-311.341,4.37888
203.5653,-309.342,4.42054
204.5681,-307.343,4.2879
205.5709,-305.332,4.09441
206.5744,-303.321,3.90071
207.5757,-301.322,3.72117
208.5775,-299.322,3.56832
209.5782,-297.312,3.44034
210.583,-295.312,3.33965
211.5835,-293.311,3.2616
212.5919,-291.579,3.19185
213.5927,-291.58,3.16334
214.5947,-291.58,3.15364
215.5986,-291.58,3.15485
216.6004,-291.58,3.15263
217.6036,-291.58,3.15202
218.6086,-291.58,3.14757
219.6113,-291.58,3.15202
220.6153,-289.855,3.14292
221.6192,-287.845,3.11279
222.6205,-285.845,3.08166
223.6236,-283.835,3.0578
224.6287,-281.825,3.02889
225.632,-279.814,3.01575
226.6317,-277.815,3.00058
227.6328,-275.815,2.98805
228.6355,-273.805,2.98056
229.6396,-271.804,2.97875
230.644,-269.795,2.98178
231.6479,-267.785,2.99714
232.6499,-265.785,3.01312
233.6515,-263.775,3.04789
234.6517,-261.776,3.1041
235.6536,-259.776,3.16597
236.6561,-257.766,3.2333
237.6574,-255.766,3.29355
238.6565,-253.766,3.3445
239.6597,-251.767,3.41243
240.664,-249.757,3.46521
241.6638,-247.756,3.47996
242.6638,-245.757,3.48583
243.6668,-243.747,3.49432
244.6697,-241.736,3.50018
245.6704,-239.747,3.50564
246.6718,-237.737,3.51373
247.6795,-235.717,3.51333
248.6839,-233.717,3.51353
249.6866,-231.707,3.51151
250.6912,-229.697,3.51049
251.6939,-227.697,3.51312
252.6963,-225.688,3.5107
253.6975,-223.688,3.50544
254.6993,-221.678,3.50059
255.7006,-219.679,3.50342
256.7015,-217.678,3.50221
257.7049,-218.307,3.5014
258.7069,-220.307,3.5018
259.7083,-222.307,3.50322
260.7091,-224.317,3.50544
261.7123,-226.49,3.49958
262.7131,-236.535,3.5018
263.7173,-246.536,3.50281
264.72,-256.585,3.45651
265.7223,-266.634,3.18194
266.7242,-267.335,2.99148
267.7262,-267.335,2.99027
268.7341,-267.335,2.98845
269.7364,-267.335,2.9935
270.7383,-267.335,2.99452
271.7423,-267.335,3.002
272.7441,-267.335,2.98987
273.7462,-267.335,2.98683
274.7484,-267.335,2.99997
275.0487,-267.335,2.99209