Folder: RRI/Tinius-Olsen_Levitation_force/Preprocessed_measures (part 3)

File: 20231204_1536YBCOs1_sl9_3.txt.csv
Time(s),Displacement(mm),Force(N)
0.0,-267.335,3.02848
0.8445,-267.335,3.03738
1.646,-267.335,3.03697
2.448,-267.335,3.03192
3.2496,-267.335,3.03273
4.0514,-267.335,3.03414
4.8508,-267.199,3.07195
5.6723,-267.0,3.04102
6.4732,-267.0,3.04688
7.2737,-267.0,3.04688
8.0741,-267.0,3.04183
8.874,-267.0,3.04506
9.674,-267.0,3.04466
10.4744,-267.0,3.0485
11.2757,-267.0,3.03758
12.0792,-267.0,3.04365
12.8808,-267.0,3.05558
13.7029,-269.578,2.98784
14.5079,-270.0,2.98319
15.3107,-270.0,2.98198
16.1125,-270.0,2.98582
16.9138,-270.0,2.98764
17.7168,-270.0,2.98946
18.5196,-270.0,2.98865
19.3238,-270.0,2.99088
20.1264,-270.0,2.98764
20.9291,-270.0,2.98137
21.732,-270.0,2.97976
22.5537,-271.897,2.96136
23.3574,-277.233,2.95388
24.1594,-282.601,2.95408
24.9604,-287.938,2.93164
25.7616,-293.27,2.8724
26.5619,-298.604,2.69811
27.3638,-303.971,2.32912
28.1658,-309.303,1.58366
28.9701,-314.671,0.076766
29.7724,-315.64,-1.0393
30.5737,-315.64,-0.888471
31.374,-315.64,-0.812045
32.177,-315.64,-0.770394
32.9803,-315.64,-0.735821
33.7818,-315.64,-0.702055
34.582,-315.64,-0.676984
35.384,-315.64,-0.661012
36.1852,-315.64,-0.64241
36.9866,-315.64,-0.631088
37.7882,-315.64,-0.617744
38.5909,-315.64,-0.607634
39.3922,-315.64,-0.595099
40.1929,-315.64,-0.582968
40.9941,-315.64,-0.575285
41.7952,-315.64,-0.564164
42.5982,-315.64,-0.559716
43.398,-315.64,-0.549203
44.199,-315.64,-0.544957
45.0038,-315.64,-0.530804
45.8039,-315.64,-0.528782
46.6044,-315.64,-0.517055
47.4045,-315.64,-0.513213
48.2068,-315.64,-0.498454
49.0062,-315.64,-0.503913
49.8082,-315.64,-0.49906
50.6119,-315.64,-0.499263
51.4111,-315.64,-0.486525
52.2136,-315.64,-0.480864
53.0141,-315.64,-0.478235
53.8189,-315.64,-0.474798
54.6192,-315.64,-0.468328
55.4202,-315.64,-0.464284
56.222,-315.64,-0.460443
57.0226,-315.64,-0.455995
57.8227,-315.64,-0.453771
58.6236,-315.64,-0.447907
59.4244,-315.64,-0.448514
60.2274,-315.64,-0.440629
61.0282,-315.64,-0.439011
61.8312,-315.64,-0.436989
62.6327,-315.64,-0.427487
63.4344,-315.64,-0.429711
64.2368,-315.64,-0.429711
65.0363,-315.64,-0.421421
65.8377,-315.64,-0.417579
66.6413,-315.64,-0.420208
67.4422,-315.64,-0.417377
68.2444,-315.64,-0.410099
69.0472,-315.64,-0.414547
69.8498,-315.64,-0.408279
70.6517,-315.64,-0.403426
71.4523,-315.64,-0.39635
72.2543,-315.64,-0.395137
73.0566,-315.64,-0.397361
73.8585,-315.64,-0.400191
74.6596,-315.64,-0.392508
75.4626,-315.64,-0.390689
76.2645,-315.64,-0.390689
77.0666,-315.64,-0.388465
77.8668,-315.64,-0.380579
78.6686,-315.64,-0.377749
79.4696,-315.64,-0.375727
80.2705,-315.64,-0.376131
81.0722,-315.64,-0.370066
81.8734,-315.64,-0.371077
82.6754,-315.64,-0.374109
83.4782,-315.64,-0.369863
84.2798,-315.64,-0.371279
85.0821,-315.64,-0.366224
85.8822,-315.64,-0.363191
86.6841,-315.64,-0.362383
87.484,-315.64,-0.356317
88.2863,-315.64,-0.355913
89.086,-315.64,-0.354093
89.8866,-315.64,-0.352475
90.689,-315.64,-0.354902
91.4918,-315.64,-0.350251
92.2924,-315.64,-0.346612
93.0979,-315.64,-0.34176
93.9016,-315.64,-0.344186
94.7041,-315.64,-0.341962
95.5048,-315.64,-0.330437
96.3088,-315.64,-0.341355
97.1106,-315.64,-0.335694
97.911,-315.64,-0.341355
98.7129,-315.64,-0.331246
99.5125,-315.64,-0.327404
100.3149,-315.64,-0.326393
101.1169,-315.64,-0.328011
101.9189,-315.64,-0.327
102.7202,-315.64,-0.327202
103.5215,-315.64,-0.326596
104.3235,-315.64,-0.322956
105.1241,-315.64,-0.320732
105.9236,-315.64,-0.32053
106.7264,-315.64,-0.319317
107.5274,-315.64,-0.321339
108.3287,-315.64,-0.311229
109.1308,-315.64,-0.313858
109.9333,-315.64,-0.316486
110.733,-315.64,-0.320732
111.5348,-315.64,-0.314464
112.3356,-315.64,-0.309612
113.1385,-315.64,-0.309814
113.9424,-315.64,-0.310218
114.7418,-315.64,-0.31224
115.545,-315.64,-0.306377
116.347,-315.64,-0.302333
117.147,-315.64,-0.298492
117.9476,-315.64,-0.297481
118.7492,-315.64,-0.302738
119.552,-315.64,-0.293841
120.3534,-315.64,-0.300514
121.1564,-315.64,-0.301929
121.9567,-315.64,-0.304557
122.7577,-315.64,-0.29283
123.5585,-315.64,-0.297481
124.3595,-315.64,-0.29465
125.1638,-315.64,-0.295459
125.9666,-315.64,-0.296065
126.7694,-315.64,-0.288787
127.5737,-315.64,-0.283934
128.3798,-315.64,-0.285552
129.1829,-315.64,-0.291213
129.9844,-315.64,-0.291011
130.7848,-315.64,-0.291415
131.5848,-315.64,-0.284743
132.3849,-315.64,-0.284743
133.1855,-315.64,-0.283732
133.9885,-315.64,-0.276656
134.789,-315.64,-0.274432
135.5908,-315.64,-0.27706
136.3988,-315.64,-0.276049
137.2016,-315.64,-0.275442
138.0018,-315.64,-0.275442
138.8022,-315.64,-0.270994
139.6033,-315.64,-0.269781
140.404,-315.64,-0.274229
141.2052,-315.64,-0.270186
142.0087,-315.64,-0.267153
142.8109,-315.64,-0.267557
143.6146,-315.64,-0.261289
144.4171,-315.64,-0.265535
145.2192,-315.64,-0.259065
146.0208,-315.64,-0.263918
146.823,-315.64,-0.258054
147.6253,-315.64,-0.264322
148.4252,-315.64,-0.259065
149.2284,-315.64,-0.258257
150.0324,-315.64,-0.257044
150.8349,-315.64,-0.254011
151.6379,-315.64,-0.254617
152.4389,-315.64,-0.255628
153.2411,-315.64,-0.255628
154.0416,-315.64,-0.250574
154.8413,-315.64,-0.257448
155.6438,-315.64,-0.256033
156.4474,-315.64,-0.251787
157.2471,-315.64,-0.258257
158.0491,-315.64,-0.250169
158.853,-315.64,-0.246732
159.6548,-315.64,-0.252191
160.4553,-315.64,-0.248754
161.257,-315.64,-0.247339
162.0571,-315.64,-0.242486
162.8571,-315.64,-0.236421
163.6599,-315.64,-0.243295
164.4618,-315.64,-0.236016
165.2643,-315.64,-0.241475
166.0661,-315.64,-0.237229
166.8686,-315.64,-0.240869
167.6701,-315.64,-0.239656
168.4731,-315.64,-0.240262
169.2747,-315.64,-0.24471
170.0769,-315.64,-0.235005
170.8804,-315.64,-0.234196
171.6835,-315.64,-0.232781
172.4852,-315.64,-0.237836
173.2911,-315.64,-0.237431
174.0926,-315.64,-0.23541
174.8923,-315.64,-0.229951
175.6947,-315.64,-0.232175
176.4967,-315.64,-0.22894
177.299,-315.64,-0.224492
178.0988,-315.64,-0.22712
178.9035,-315.64,-0.228333
179.709,-315.64,-0.229142
180.5118,-315.64,-0.229546
181.3136,-315.64,-0.223481
182.1172,-315.64,-0.216
182.9207,-315.64,-0.221054
183.7234,-315.64,-0.219235
184.5269,-315.64,-0.221661
185.3277,-315.64,-0.219437
186.1299,-315.64,-0.21883
186.9308,-315.64,-0.22065
187.7318,-315.64,-0.223481
188.5373,-315.64,-0.22065
189.3387,-315.64,-0.220448
190.1398,-315.64,-0.215798
190.9408,-315.64,-0.212563
191.7452,-315.64,-0.212967
192.5455,-315.64,-0.206093
193.3454,-315.64,-0.210338
194.1478,-315.64,-0.208923
194.9514,-315.64,-0.213169
195.7542,-315.64,-0.211956
196.5546,-315.64,-0.211956
197.3581,-315.64,-0.206093
198.1596,-315.64,-0.210541
198.9619,-315.64,-0.204273
199.7622,-315.64,-0.209732
200.5628,-315.64,-0.202453
201.3637,-315.64,-0.206699
202.1655,-315.64,-0.200431
202.9684,-315.64,-0.202858
203.7694,-315.64,-0.199218
204.5733,-315.64,-0.195377
205.3757,-315.64,-0.194366
206.1797,-315.64,-0.194366
206.982,-315.64,-0.196792
207.7832,-315.64,-0.195579
208.5851,-315.64,-0.196185
209.3857,-315.64,-0.19477
210.1902,-315.64,-0.193557
210.992,-315.64,-0.194164
211.7928,-315.64,-0.194972
212.5965,-315.64,-0.194972
213.3995,-315.64,-0.195983
214.2012,-315.64,-0.19659
215.0008,-315.64,-0.191131
215.8039,-315.64,-0.186683
216.6059,-315.64,-0.188098
217.4092,-315.64,-0.188705
218.2126,-315.64,-0.192142
219.0166,-315.64,-0.192748
219.8175,-315.64,-0.190929
220.6213,-315.64,-0.19194
221.4239,-315.64,-0.190726
222.2256,-315.64,-0.181224
223.03,-315.64,-0.1883
223.8309,-315.64,-0.187896
224.6307,-315.64,-0.185065

File: 20231204_1541YBCOs1_sl9_4.txt.csv
Time(s),Displacement(mm),Force(N)
0.0,-315.495,0.994894
0.9191,-309.748,4.54832
1.8215,-303.729,3.91062
2.7224,-297.748,3.45186
3.6252,-291.698,3.20722
4.5283,-285.714,3.08186
5.4349,-279.665,3.02505
6.3415,-273.612,3.02242
7.2418,-267.594,3.13706
8.1438,-265.639,3.18437
9.0442,-265.64,3.18194
9.9443,-265.64,3.18012
10.8464,-265.64,3.18316
11.7498,-265.64,3.18558
12.6514,-265.64,3.17709
13.556,-265.64,3.17547
14.4555,-265.64,3.1779
15.3576,-265.64,3.18214
16.258,-265.768,3.15182
17.1816,-271.552,3.01494
18.0829,-277.57,2.97915
18.9846,-283.585,2.97612
19.8857,-289.569,2.96661
20.7881,-295.585,2.88614
21.6921,-301.603,2.55557
22.5914,-307.623,1.88007
23.4918,-312.955,0.384696
24.392,-315.64,-0.988149
25.2935,-315.64,-0.82822
26.1954,-315.64,-0.761094
27.1012,-315.64,-0.719848
28.0063,-315.64,-0.681837
28.9068,-315.64,-0.663236
29.8088,-315.64,-0.640591
30.7137,-315.64,-0.624416
31.6155,-315.64,-0.611476
32.5155,-315.64,-0.598536
33.4196,-315.64,-0.582159
34.3205,-315.64,-0.56558
35.2231,-315.64,-0.562951
36.1263,-315.64,-0.55082
37.0319,-315.64,-0.539902
37.9341,-315.64,-0.535656
38.8375,-315.64,-0.526962
39.7398,-315.64,-0.518673
40.6414,-315.64,-0.514224
41.5423,-315.64,-0.508765
42.4424,-315.64,-0.505733
43.345,-315.64,-0.499263
44.2466,-315.64,-0.49623
45.1476,-315.64,-0.490366
46.0503,-315.64,-0.481875
46.9497,-315.64,-0.473787
47.8522,-315.64,-0.470957
48.7547,-315.64,-0.469339
49.6579,-315.64,-0.466508
50.5614,-315.64,-0.462465
51.4652,-315.64,-0.456804
52.3704,-315.64,-0.458421
53.2727,-315.64,-0.449323
54.1754,-315.64,-0.453569
55.0757,-315.64,-0.444672
55.9756,-315.64,-0.44164
56.8777,-315.64,-0.424252
57.7797,-315.64,-0.43153
58.6821,-315.64,-0.43153
59.5874,-315.64,-0.427284
60.4903,-315.64,-0.424858
61.3904,-315.64,-0.422432
62.2927,-315.64,-0.420006
63.1946,-315.64,-0.418186
64.0965,-315.64,-0.414951
64.9998,-315.64,-0.409694
65.9019,-315.64,-0.411312
66.8055,-315.64,-0.410099
67.7062,-315.64,-0.400191
68.6078,-315.64,-0.398776
69.5095,-315.64,-0.395945
70.4106,-315.64,-0.398574
71.3119,-315.64,-0.397967
72.2138,-315.64,-0.39453
73.1175,-315.64,-0.395137
74.0217,-315.64,-0.390284
74.9247,-315.64,-0.392508
75.8258,-315.64,-0.391497
76.7269,-315.64,-0.386443
77.6279,-315.64,-0.381388
78.5302,-315.64,-0.381792
79.4322,-315.64,-0.374109
80.3356,-315.64,-0.378355
81.2406,-315.64,-0.369055
82.1422,-315.64,-0.368448
83.0444,-315.64,-0.37229
83.9467,-315.64,-0.361574
84.8478,-315.64,-0.367639
85.7483,-315.64,-0.362383
86.6506,-315.64,-0.360765
87.5513,-315.64,-0.360361
88.454,-315.64,-0.357732
89.3568,-315.64,-0.354902
90.2581,-315.64,-0.352071
91.1599,-315.64,-0.350858
92.0603,-315.64,-0.351262
92.9637,-315.64,-0.34277
93.8668,-315.64,-0.347623
94.7717,-315.64,-0.349645
95.6741,-315.64,-0.347825
96.5799,-315.64,-0.339536
97.4804,-315.64,-0.345197
98.3806,-315.64,-0.342366
99.282,-315.64,-0.341355
100.1849,-315.64,-0.335087
101.0881,-315.64,-0.335896
101.9897,-315.64,-0.33347
102.8936,-315.64,-0.335087
103.7953,-315.64,-0.332257
104.6967,-315.64,-0.334683
105.5986,-315.64,-0.328415
106.5006,-315.64,-0.332661
107.4042,-315.64,-0.328213
108.3056,-315.64,-0.330437
109.209,-315.64,-0.325585
110.1092,-315.64,-0.327607
111.0112,-315.64,-0.330639
111.9127,-315.64,-0.318306
112.8149,-315.64,-0.319519
113.7159,-315.64,-0.324776
114.6192,-315.64,-0.323158
115.5236,-315.64,-0.319115
116.4264,-315.64,-0.325382
117.3292,-315.64,-0.319721
118.2308,-315.64,-0.315475
119.1309,-315.64,-0.313049
120.0313,-315.64,-0.308399
120.9324,-315.64,-0.307994
121.834,-315.64,-0.310623
122.7401,-315.64,-0.309005
123.644,-315.64,-0.308601
124.5478,-315.64,-0.306984
125.451,-315.64,-0.305366
126.3521,-315.64,-0.297279
127.2545,-315.64,-0.308803
128.1567,-315.64,-0.301524
129.0587,-315.64,-0.304355
129.9605,-315.64,-0.305568
130.8647,-315.64,-0.293639
131.7687,-315.64,-0.300311
132.6719,-315.64,-0.303951
133.5756,-315.64,-0.286765
134.4768,-315.64,-0.296672
135.381,-315.64,-0.292224
136.2812,-315.64,-0.294448
137.1824,-315.64,-0.293841
138.0856,-315.64,-0.287574
138.9887,-315.64,-0.292628
139.8916,-315.64,-0.290809
140.7929,-315.64,-0.289393
141.697,-315.64,-0.288585
142.5988,-315.64,-0.290404
143.5011,-315.64,-0.290202
144.4043,-315.64,-0.29465
145.3072,-315.64,-0.285552
146.2094,-315.64,-0.285754
147.1121,-315.64,-0.28818
148.0132,-315.64,-0.288382
148.9174,-315.64,-0.284945
149.818,-315.64,-0.282923
150.721,-315.64,-0.28818
151.6227,-315.64,-0.28171
152.5246,-315.64,-0.28353
153.4268,-315.64,-0.273825
154.3309,-315.64,-0.276858
155.234,-315.64,-0.281306
156.1361,-315.64,-0.279284
157.0394,-315.64,-0.274634
157.9414,-315.64,-0.276656
158.8432,-315.64,-0.271197
159.7464,-315.64,-0.274027
160.6477,-315.64,-0.27241
161.5517,-315.64,-0.276251
162.4556,-315.64,-0.268366
163.3592,-315.64,-0.269377
164.2601,-315.64,-0.266748
165.1628,-315.64,-0.269781
166.0654,-315.64,-0.268366
166.9684,-315.64,-0.264524
167.8712,-315.64,-0.263513
168.7722,-315.64,-0.269983
169.6742,-315.64,-0.265535
170.5766,-315.64,-0.262503
171.4798,-315.64,-0.267153
172.381,-315.64,-0.261087
173.2839,-315.64,-0.261087
174.1838,-315.64,-0.260278
175.088,-315.64,-0.264322
175.9926,-315.64,-0.264929
176.8967,-315.64,-0.263513
177.8005,-315.64,-0.260076
178.7041,-315.64,-0.257448
179.606,-315.64,-0.260278
180.5079,-315.64,-0.256235
181.4111,-315.64,-0.255224
182.3131,-315.64,-0.258863
183.2174,-315.64,-0.257448
184.1194,-315.64,-0.250169
185.0228,-315.64,-0.256841
185.9254,-315.64,-0.250978
186.8296,-315.64,-0.248147
187.7322,-315.64,-0.248552
188.6343,-315.64,-0.248147
189.5391,-315.64,-0.250574
190.4393,-315.64,-0.241475
191.3435,-315.64,-0.245115
192.246,-315.64,-0.246125
193.149,-315.64,-0.248147
194.0544,-315.64,-0.250776
194.9582,-315.64,-0.248956
195.8629,-315.64,-0.243901
196.7677,-315.64,-0.247945
197.6713,-315.64,-0.243093
198.5799,-315.64,-0.247136
199.4827,-315.64,-0.243497
200.3885,-315.64,-0.243497
201.2896,-315.64,-0.243093
202.1928,-315.64,-0.240869
203.0943,-315.64,-0.243901
203.9985,-315.64,-0.242082
204.8995,-315.64,-0.239656
205.7997,-315.64,-0.243093
206.6994,-315.64,-0.238442
207.6018,-315.64,-0.241475
208.5061,-315.64,-0.238847
209.4107,-315.64,-0.242082
210.312,-315.64,-0.240464
211.2163,-315.64,-0.24006
212.1189,-315.64,-0.237836
213.0204,-315.64,-0.239049
213.9255,-315.64,-0.23541
214.8291,-315.64,-0.231366
215.7322,-315.64,-0.229748
216.6379,-315.64,-0.238645
217.542,-315.64,-0.235005
218.4449,-315.64,-0.232377
219.3474,-315.64,-0.232781
220.2496,-315.64,-0.232579
221.1552,-315.64,-0.229344
222.0567,-315.64,-0.228737
222.9566,-315.64,-0.230153
223.8575,-315.64,-0.222874
224.7602,-315.64,-0.234601
225.6646,-315.64,-0.228131
226.5683,-315.64,-0.226513
227.4739,-315.64,-0.227727
228.3771,-315.64,-0.233792
229.281,-315.64,-0.223278
230.1818,-315.64,-0.231164
231.0848,-315.64,-0.23359
231.9869,-315.64,-0.220852
232.9092,-311.74,-0.213169
233.8115,-305.724,4.6025
234.7135,-299.708,3.97027
235.6181,-293.693,3.48623
236.5204,-287.641,3.22076
237.422,-281.659,3.08975
238.3236,-275.644,3.03576
239.2264,-269.628,3.03738
240.1257,-265.639,3.19791
241.0289,-265.64,3.26039
241.9297,-265.64,3.25877
242.8334,-265.64,3.25432
243.7364,-265.64,3.25432
244.6375,-265.64,3.25412
245.544,-265.64,3.24947
246.4469,-265.64,3.25412
247.3475,-265.64,3.25089
248.2487,-265.64,3.25412
249.1498,-265.64,3.25534
249.652,-265.64,3.2517

File: 20231204_1545YBCOs1_sl9_5.txt.csv
Time(s),Displacement(mm),Force(N)
0.0,-265.774,3.21631
0.8216,-270.871,3.08712
1.6261,-276.24,2.99512
2.4278,-281.571,2.97794
3.2289,-286.908,2.9747
4.0309,-292.243,2.93568
4.8336,-297.608,2.79455
5.6359,-302.941,2.41647
6.4372,-308.307,1.67889
7.2385,-313.639,0.249029
8.0399,-315.64,-0.984914
8.8406,-315.64,-0.826198
9.6407,-315.64,-0.758263
10.4406,-315.64,-0.711558
11.2463,-315.64,-0.674962
12.0495,-315.64,-0.658181
12.8527,-315.64,-0.624618
13.6546,-315.64,-0.610263
14.4577,-315.64,-0.600356
15.2599,-315.64,-0.584383
16.0617,-315.64,-0.573465
16.8628,-315.64,-0.561738
17.6629,-315.64,-0.550011
18.4635,-315.64,-0.538689
19.2662,-315.64,-0.532017
20.0665,-315.64,-0.525345
20.8722,-315.64,-0.514831
21.6739,-315.64,-0.513618
22.4761,-315.64,-0.504722
23.277,-315.64,-0.500476
24.0802,-315.64,-0.490771
24.8808,-315.64,-0.490164
25.6831,-315.64,-0.48329
26.4864,-315.64,-0.478235
27.2885,-315.64,-0.478033
28.089,-315.64,-0.469339
28.8941,-315.64,-0.462263
29.6985,-315.64,-0.453569
30.5005,-315.64,-0.451547
31.3036,-315.64,-0.449323
32.104,-315.64,-0.446694
32.9065,-315.64,-0.44265
33.7081,-315.64,-0.440831
34.5116,-315.64,-0.436383
35.3137,-315.64,-0.431126
36.1152,-315.64,-0.427082
36.919,-315.64,-0.43335
37.7225,-315.64,-0.423241
38.5263,-315.64,-0.425667
39.3305,-315.64,-0.419399
40.136,-315.64,-0.413738
40.937,-315.64,-0.417579
41.7385,-315.64,-0.413738
42.5385,-315.64,-0.405853
43.3387,-315.64,-0.403629
44.144,-315.64,-0.411514
44.945,-315.64,-0.40565
45.7451,-315.64,-0.401
46.5503,-315.64,-0.397967
47.3521,-315.64,-0.392913
48.1563,-315.64,-0.38988
48.9568,-315.64,-0.386645
49.758,-315.64,-0.393519
50.5604,-315.64,-0.381186
51.3605,-315.64,-0.379366
52.1633,-315.64,-0.379973
52.9656,-315.64,-0.383612
53.766,-315.64,-0.377344
54.5668,-315.64,-0.380984
55.3711,-315.64,-0.377344
56.1725,-315.64,-0.371481
56.9758,-315.64,-0.37512
57.7784,-315.64,-0.367033
58.5797,-315.64,-0.36582
59.3826,-315.64,-0.360563
60.1848,-315.64,-0.364607
60.9899,-315.64,-0.361169
61.7954,-315.64,-0.361776
62.5965,-315.64,-0.359552
63.3987,-315.64,-0.356721
64.2015,-315.64,-0.35753
65.0028,-315.64,-0.352071
65.8049,-315.64,-0.352475
66.608,-315.64,-0.346612
67.4113,-315.64,-0.347421
68.2112,-315.64,-0.343781
69.0129,-315.64,-0.342164
69.8153,-315.64,-0.344792
70.6214,-315.64,-0.344995
71.4232,-315.64,-0.347825
72.225,-315.64,-0.337109
73.0275,-315.64,-0.343984
73.8287,-315.64,-0.340546
74.631,-315.64,-0.342568
75.4324,-315.64,-0.33529
76.2334,-315.64,-0.335492
77.0336,-315.64,-0.336907
77.8346,-315.64,-0.326393
78.6368,-315.64,-0.334076
79.4391,-315.64,-0.331852
80.2403,-315.64,-0.329224
81.0414,-315.64,-0.329426
81.8414,-315.64,-0.328213
82.6428,-315.64,-0.324372
83.4435,-315.64,-0.325382
84.2436,-315.64,-0.319115
85.046,-315.64,-0.324574
85.8481,-315.64,-0.321945
86.651,-315.64,-0.328415
87.4501,-315.64,-0.325787
88.2538,-315.64,-0.323158
89.0571,-315.64,-0.312038
89.8611,-315.64,-0.319115
90.6651,-315.64,-0.319721
91.4686,-315.64,-0.313251
92.2722,-315.64,-0.316082
93.079,-315.64,-0.312645
93.8797,-315.64,-0.311027
94.6817,-315.64,-0.311027
95.4815,-315.64,-0.309612
96.2846,-315.64,-0.315475
97.0882,-315.64,-0.304557
97.889,-315.64,-0.31224
98.6893,-315.64,-0.304962
99.4929,-315.64,-0.305973
100.2935,-315.64,-0.299907
101.0958,-315.64,-0.307186
101.8953,-315.64,-0.303951
102.699,-315.64,-0.300311
103.5003,-315.64,-0.301322
104.3025,-315.64,-0.294448
105.1047,-315.64,-0.298896
105.909,-315.64,-0.295055
106.7126,-315.64,-0.296874
107.5138,-315.64,-0.299705
108.3148,-315.64,-0.291011
109.1174,-315.64,-0.294448
109.9193,-315.64,-0.290202
110.7198,-315.64,-0.297683
111.5228,-315.64,-0.295257
112.3239,-315.64,-0.289191
113.125,-315.64,-0.29465
113.9252,-315.64,-0.287371
114.7278,-315.64,-0.288787
115.5288,-315.64,-0.284136
116.3305,-315.64,-0.284743
117.1319,-315.64,-0.288989
117.9317,-315.64,-0.282519
118.7348,-315.64,-0.286563
119.5349,-315.64,-0.281508
120.3399,-315.64,-0.281104
121.1401,-315.64,-0.282317
121.9464,-315.64,-0.284743
122.7491,-315.64,-0.28353
123.5494,-315.64,-0.274229
124.3518,-315.64,-0.273016
125.1569,-315.64,-0.276656
125.9578,-315.64,-0.272814
126.7591,-315.64,-0.280295
127.5595,-315.64,-0.268973
128.363,-315.64,-0.270186
129.1662,-315.64,-0.26877
129.9665,-315.64,-0.264727
130.7722,-315.64,-0.273218
131.5727,-315.64,-0.27888
132.3742,-315.64,-0.273016
133.1749,-315.64,-0.273623
133.9762,-315.64,-0.269983
134.7759,-315.64,-0.263311
135.5768,-315.64,-0.270792
136.3824,-315.64,-0.263513
137.1841,-315.64,-0.261492
137.9856,-315.64,-0.262705
138.7865,-315.64,-0.264727
139.5881,-315.64,-0.2623
140.3927,-315.64,-0.265131
141.1943,-315.64,-0.270994
141.996,-315.64,-0.266748
142.7971,-315.64,-0.259874
143.5992,-315.64,-0.266546
144.4008,-315.64,-0.263918
145.2041,-315.64,-0.25765
146.0076,-315.64,-0.257448
146.8074,-315.64,-0.254011
147.6105,-315.64,-0.255628
148.4115,-315.64,-0.257246
149.2172,-315.64,-0.256033
150.0193,-315.64,-0.253
150.8203,-315.64,-0.253606
151.6217,-315.64,-0.252191
152.4257,-315.64,-0.25118
153.2301,-315.64,-0.250978
154.0321,-315.64,-0.246125
154.8341,-315.64,-0.249158
155.6347,-315.64,-0.248147
156.4397,-315.64,-0.253404
157.2413,-315.64,-0.250776
158.0423,-315.64,-0.242486
158.8476,-315.64,-0.245317
159.6481,-315.64,-0.245317
160.4489,-315.64,-0.252798
161.2502,-315.64,-0.245519
162.0522,-315.64,-0.24936
162.8535,-315.64,-0.245317
163.6543,-315.64,-0.246125
164.4543,-315.64,-0.248147
165.2561,-315.64,-0.245721
166.0591,-315.64,-0.241677
166.8602,-315.64,-0.239858
167.6622,-315.64,-0.24006
168.4622,-315.64,-0.234399
169.2645,-315.64,-0.243901
170.0686,-315.64,-0.249765
170.8685,-315.64,-0.242284
171.6722,-315.64,-0.244508
172.4741,-315.64,-0.242284
173.276,-315.64,-0.23824
174.0778,-315.64,-0.236016
174.8799,-315.64,-0.236016
175.6821,-315.64,-0.231164
176.4844,-315.64,-0.236623
177.2841,-315.64,-0.234196
178.084,-315.64,-0.231972
178.8879,-315.64,-0.238038
179.6903,-315.64,-0.240464
180.4953,-315.64,-0.233388
181.2959,-315.64,-0.233388
182.0959,-315.64,-0.231568
182.9001,-315.64,-0.235207
183.7008,-315.64,-0.232983
184.5001,-315.64,-0.230759
185.3017,-315.64,-0.231164
186.1051,-315.64,-0.22894
186.9102,-315.64,-0.231164
187.7125,-315.64,-0.226311
188.5152,-315.64,-0.227727
189.3196,-315.64,-0.229748
190.1206,-315.64,-0.229951
190.923,-315.64,-0.225098
191.7222,-315.64,-0.225907
192.5248,-315.64,-0.225907
193.3265,-315.64,-0.229142
194.1301,-315.64,-0.228333
194.9325,-315.64,-0.221661
195.7546,-314.414,-0.222672
196.5568,-309.081,4.59967
197.3595,-303.715,4.31014
198.1592,-298.383,3.76201
198.9615,-293.048,3.39565
199.7633,-287.682,3.20277
200.5654,-282.35,3.10107
201.3656,-277.018,3.05537
202.1672,-271.686,3.06205
202.9697,-266.317,3.2149
203.7708,-265.639,3.3257
204.5716,-265.64,3.3259
205.3732,-265.64,3.32833
206.1945,-263.098,3.3263
206.9949,-257.731,3.4458
207.7972,-252.399,3.50423
208.5987,-247.067,3.51919
209.4011,-241.698,3.53051
210.2066,-236.329,3.51899
211.0097,-230.963,3.51252
211.8123,-225.631,3.51474
212.6133,-220.265,3.50423
213.4146,-215.639,3.50463
214.215,-215.64,3.50827
215.0177,-215.64,3.5018
215.8176,-215.64,3.5014
216.6409,-212.394,3.50726
217.4404,-207.062,3.5111
218.2412,-201.73,3.50342
219.0427,-196.398,3.50544
219.8456,-191.032,3.5018
220.6456,-185.7,3.49998
221.4478,-180.368,3.49857
222.2478,-175.036,3.4927
223.0486,-169.703,3.4925
223.8514,-165.639,3.49654
224.6544,-165.64,3.4929