Folder: RRI/Tinius-Olsen_Levitation_force/Preprocessed_measures (part 5)

File: 20231204_1651GDBCOs2_sl6_4.txt.csv
Time(s),Displacement(mm),Force(N)
0.0,-266.958,3.10006
0.522,-270.043,3.03859
1.0225,-273.358,3.05436
1.5245,-276.708,3.06791
2.0259,-280.058,3.09662
2.5267,-283.408,3.12149
3.0285,-286.757,3.18356
3.5309,-290.072,3.22278
4.033,-293.424,3.28951
4.5352,-296.774,3.32024
5.039,-300.158,3.27818
5.539,-303.476,2.99674
6.0422,-306.83,2.19932
6.5438,-310.18,0.137826
7.0436,-313.496,-4.56685
7.5441,-316.779,-13.3506
8.0443,-316.8,-12.9944
8.5461,-316.8,-12.8696
9.049,-316.8,-12.7962
9.5496,-316.8,-12.7546
10.0501,-316.8,-12.722
10.5515,-316.8,-12.6913
11.0517,-316.8,-12.6662
11.5527,-316.8,-12.631
12.0527,-316.8,-12.6201
12.553,-316.8,-12.6044
13.0551,-316.8,-12.5902
13.5552,-316.8,-12.5744
14.0572,-316.8,-12.5483
14.5571,-316.8,-12.5356
15.0572,-316.8,-12.5247
15.5571,-316.8,-12.5154
16.0576,-316.8,-12.5043
16.559,-316.8,-12.5071
17.061,-316.8,-12.502
17.5626,-316.8,-12.4883
18.0645,-316.8,-12.4774
18.5666,-316.8,-12.4679
19.0698,-316.8,-12.4636
19.573,-316.8,-12.456
20.0733,-316.8,-12.4507
20.5744,-316.8,-12.4373
21.0761,-316.8,-12.4396
21.5783,-316.8,-12.443
22.0789,-316.8,-12.4315
22.5782,-316.8,-12.424
23.0815,-316.8,-12.4226
23.5845,-316.8,-12.4141
24.0846,-316.8,-12.404
24.5869,-316.8,-12.4086
25.0885,-316.8,-12.3991
25.59,-316.8,-12.3965
26.0934,-316.8,-12.3943
26.5958,-316.8,-12.3908
27.098,-316.8,-12.3898
27.602,-316.8,-12.3834
28.1032,-316.8,-12.3787
28.6074,-316.8,-12.3674
29.1069,-316.8,-12.372
29.6099,-316.8,-12.3672
30.1126,-316.8,-12.3743
30.614,-316.8,-12.3623
31.1145,-316.8,-12.3629
31.6153,-316.8,-12.3551
32.118,-316.8,-12.3545
32.6202,-316.8,-12.3512
33.1201,-316.8,-12.3439
33.6203,-316.8,-12.3377
34.1218,-316.8,-12.3409
34.6234,-316.8,-12.3344
35.1244,-316.8,-12.3304
35.6263,-316.8,-12.3308
36.1283,-316.8,-12.3223
36.632,-316.8,-12.3225
37.1358,-316.8,-12.3217
37.6367,-316.8,-12.3247
38.1392,-316.8,-12.312
38.6417,-316.8,-12.3061
39.1433,-316.8,-12.316
39.6452,-316.8,-12.3057
40.1446,-316.8,-12.3061
40.6446,-316.8,-12.2995
41.1451,-316.8,-12.2982
41.6447,-316.8,-12.3011
42.1447,-316.8,-12.2926
42.6452,-316.8,-12.2875
43.1453,-316.8,-12.2833
43.6464,-316.8,-12.2843
44.1478,-316.8,-12.2859
44.6517,-316.8,-12.2823
45.153,-316.8,-12.2736
45.6545,-316.8,-12.2817
46.1563,-316.8,-12.279
46.6581,-316.8,-12.2776
47.1583,-316.8,-12.2788
47.6585,-316.8,-12.2728
48.1608,-316.8,-12.2683
48.6619,-316.8,-12.2718
49.1623,-316.8,-12.2695
49.6643,-316.8,-12.2627
50.1653,-316.8,-12.2677
50.6683,-316.8,-12.2509
51.1709,-316.8,-12.2501
51.6717,-316.8,-12.2536
52.1749,-316.8,-12.2602
52.6754,-316.8,-12.2548
53.1763,-316.8,-12.2443
53.6784,-316.8,-12.2467
54.1809,-316.8,-12.2441
54.6833,-316.8,-12.2485
55.1827,-316.8,-12.2461
55.6849,-316.8,-12.241
56.1846,-316.8,-12.2374
56.6868,-316.8,-12.242
57.1883,-316.8,-12.2394
57.6882,-316.8,-12.2384
58.1896,-316.8,-12.2362
58.6903,-316.8,-12.2342
59.1924,-316.8,-12.223
59.6943,-316.8,-12.2249
60.1949,-316.8,-12.2253
60.6958,-316.8,-12.2204
61.2005,-316.8,-12.2249
61.7016,-316.8,-12.2192
62.2055,-316.8,-12.221
62.7045,-316.8,-12.223
63.2048,-316.8,-12.2069
63.7048,-316.8,-12.2153
64.2059,-316.8,-12.2093
64.7069,-316.8,-12.2127
65.2083,-316.8,-12.2081
65.7096,-316.8,-12.2036
66.2106,-316.8,-12.2099
66.7145,-316.8,-12.2052
67.2165,-316.8,-12.2028
67.7166,-316.8,-12.2058
68.221,-316.8,-12.1955
68.7226,-316.8,-12.2018
69.2245,-316.8,-12.2024
69.7265,-316.8,-12.1939
70.2272,-316.8,-12.1982
70.7295,-316.8,-12.1949
71.2301,-316.8,-12.1838
71.7313,-316.8,-12.1945
72.2316,-316.8,-12.1911
72.7326,-316.8,-12.1901
73.2332,-316.8,-12.1957
73.7337,-316.8,-12.1923
74.2386,-316.8,-12.1862
74.738,-316.8,-12.1816
75.2398,-316.8,-12.184
75.7426,-316.8,-12.1747
76.2435,-316.8,-12.1838
76.7437,-316.8,-12.1826
77.2467,-316.8,-12.1761
77.7486,-316.8,-12.181
78.2516,-316.8,-12.1777
78.7535,-316.8,-12.1735
79.2541,-316.8,-12.1727
79.7549,-316.8,-12.1816
80.2554,-316.8,-12.1703
80.7567,-316.8,-12.1729
81.2599,-316.8,-12.1664
81.7621,-316.8,-12.1701
82.264,-316.8,-12.1674
82.765,-316.8,-12.1735
83.2668,-316.8,-12.164
83.767,-316.8,-12.1573
84.2706,-316.8,-12.1602
84.7698,-316.8,-12.1628
85.2715,-316.8,-12.1634
85.7712,-316.8,-12.1636
86.2725,-316.8,-12.1622
86.7746,-316.8,-12.1606
87.2755,-316.8,-12.1638
87.776,-316.8,-12.1606
88.2773,-316.8,-12.1535
88.7773,-316.8,-12.1616
89.2799,-316.8,-12.1476
89.7816,-316.8,-12.1488
90.2811,-316.8,-12.1456
90.7808,-316.8,-12.1452
91.2826,-316.8,-12.148
91.7827,-316.8,-12.1424
92.2856,-316.8,-12.1432
92.786,-316.8,-12.1442
93.2893,-316.8,-12.146
93.7918,-316.8,-12.146
94.2945,-316.8,-12.1401
94.797,-316.8,-12.1357
95.2995,-316.8,-12.1399
95.8024,-316.8,-12.1371
96.3042,-316.8,-12.1371
96.8051,-316.8,-12.1395
97.3059,-316.8,-12.1401
97.807,-316.8,-12.1335
98.3071,-316.8,-12.1325
98.8073,-316.8,-12.132
99.3103,-316.8,-12.1276
99.8108,-316.8,-12.1308
100.3119,-316.8,-12.1333
100.815,-316.8,-12.1292
101.316,-316.8,-12.1195
101.8187,-316.8,-12.1345
102.3206,-316.8,-12.1244
102.8232,-316.8,-12.1347
103.3252,-316.8,-12.1171
103.8252,-316.8,-12.1312
104.3252,-316.8,-12.126
104.8276,-316.8,-12.1201
105.3276,-316.8,-12.1221
105.8274,-316.8,-12.1232
106.3293,-316.8,-12.1134
106.8308,-316.8,-12.1108
107.3303,-316.8,-12.1147
107.8312,-316.8,-12.1096
108.3337,-316.8,-12.1171
108.835,-316.8,-12.1199
109.3366,-316.8,-12.1191
109.8377,-316.8,-12.1163
110.3376,-316.8,-12.108
110.8382,-316.8,-12.1155
111.3398,-316.8,-12.1039
111.8415,-316.8,-12.108
112.3425,-316.8,-12.1078
112.8449,-316.8,-12.0971
113.3469,-316.8,-12.1056
113.8476,-316.8,-12.1086
114.3691,-315.559,-12.107
114.8736,-312.209,-3.37536
115.3745,-308.859,1.47165
115.8743,-305.544,3.16516
116.3758,-302.194,3.64818
116.8753,-298.879,3.68458
117.3772,-295.529,3.58571
117.8779,-292.177,3.46541
118.3798,-288.825,3.35239
118.8829,-285.475,3.26039
119.3842,-282.126,3.19347
119.8867,-278.81,3.13281
120.3891,-275.427,3.08793
120.8902,-272.109,3.076
121.393,-268.759,3.08995
121.8949,-266.799,3.16698
122.3958,-266.799,3.18679
122.8963,-266.8,3.18518
123.3987,-266.8,3.18214
123.8996,-266.8,3.17952
124.3997,-266.8,3.18578
124.9005,-266.8,3.18437
125.4015,-266.8,3.18538
125.9019,-266.8,3.17972
126.4026,-266.8,3.17729
126.9048,-266.8,3.19144
127.0046,-266.8,3.18619

File: 20231204_1653GDBCOs2_sl6_5.txt.csv
Time(s),Displacement(mm),Force(N)
0.0,-266.952,3.14717
1.7449,-278.173,3.08873
3.4509,-289.558,3.23411
5.1555,-300.939,3.24947
6.8641,-312.321,-2.37899
8.5686,-316.8,-12.7991
10.2728,-316.8,-12.6357
11.978,-316.8,-12.5581
13.6817,-316.8,-12.5053
15.3879,-316.8,-12.4754
17.0919,-316.8,-12.4402
18.7991,-316.8,-12.4103
20.5044,-316.8,-12.3817
22.2086,-316.8,-12.3686
23.9118,-316.8,-12.3494
25.6135,-316.8,-12.3377
27.3172,-316.8,-12.3191
29.0195,-316.8,-12.312
30.7232,-316.8,-12.2995
32.4321,-316.8,-12.2922
34.1379,-316.8,-12.278
35.8462,-316.8,-12.2687
37.5508,-316.8,-12.2495
39.2528,-316.8,-12.2483
40.9599,-316.8,-12.2449
42.6651,-316.8,-12.2362
44.3704,-316.8,-12.2236
46.0729,-316.8,-12.2139
47.7752,-316.8,-12.2127
49.4799,-316.8,-12.205
51.1864,-316.8,-12.1972
52.8888,-316.8,-12.1925
54.5959,-316.8,-12.1885
56.2984,-316.8,-12.1836
58.0051,-316.8,-12.1808
59.71,-316.8,-12.1697
61.4166,-316.8,-12.167
63.1196,-316.8,-12.162
64.8212,-316.8,-12.1547
66.5234,-316.8,-12.1498
68.2254,-316.8,-12.145
69.9332,-316.8,-12.1401
71.6386,-316.8,-12.1335
73.3425,-316.8,-12.1284
75.0458,-316.8,-12.1266
76.7512,-316.8,-12.1254
78.4582,-316.8,-12.1201
80.1626,-316.8,-12.1136
81.8656,-316.8,-12.1183
83.5692,-316.8,-12.1074
85.2721,-316.8,-12.1046
86.9794,-316.8,-12.1015
88.6829,-316.8,-12.0993
90.3857,-316.8,-12.0963
92.0907,-316.8,-12.0934
93.7944,-316.8,-12.0851
95.5011,-316.8,-12.0825
97.2037,-316.8,-12.0769
98.9115,-316.8,-12.0791
100.6163,-316.8,-12.0734
102.3238,-316.8,-12.0704
104.0271,-316.8,-12.0647
105.7342,-316.8,-12.0655
107.4388,-316.8,-12.0623
109.1434,-316.8,-12.0613
110.8537,-316.8,-12.0578
112.5607,-316.8,-12.051
114.2645,-316.8,-12.0512
115.9693,-316.8,-12.0481
117.6739,-316.8,-12.0447
119.3795,-316.8,-12.0441
121.082,-316.8,-12.0409
122.7871,-316.8,-12.0392
124.4885,-316.8,-12.0299
126.1948,-316.8,-12.0399
127.8979,-316.8,-12.0245
129.6036,-316.8,-12.0271
131.3057,-316.8,-12.0168
133.0122,-316.8,-12.0136
134.7171,-316.8,-12.0178
136.4192,-316.8,-12.0212
138.1229,-316.8,-12.0233
139.8273,-316.8,-12.0045
141.5317,-316.8,-12.0166
143.2418,-316.8,-12.0067
144.9465,-316.8,-12.0039
146.6497,-316.8,-12.0049
148.3551,-316.8,-11.998
150.0625,-316.8,-12.0047
151.77,-316.8,-11.9933
153.4766,-316.8,-11.996
155.1774,-316.8,-12.0033
156.8836,-316.8,-11.9853
158.5901,-316.8,-11.9857
160.2929,-316.8,-11.9929
161.9965,-316.8,-11.9836
163.7024,-316.8,-11.982
165.4089,-316.8,-11.976
167.1158,-316.8,-11.9749
168.8211,-316.8,-11.9739
170.527,-316.8,-11.9719
172.2298,-316.8,-11.9644
173.933,-316.8,-11.9541
175.6403,-316.8,-11.9636
177.3452,-316.8,-11.965
179.0477,-316.8,-11.958
180.751,-316.8,-11.9656
182.4558,-316.8,-11.9543
184.1598,-316.8,-11.9541
185.8612,-316.8,-11.9561
187.5654,-316.8,-11.9523
189.2736,-316.8,-11.9458
190.9792,-316.8,-11.9507
192.6851,-316.8,-11.942
194.3894,-316.8,-11.9442
196.0933,-316.8,-11.9418
197.7975,-316.8,-11.9422
199.5056,-316.8,-11.9394
201.2127,-316.8,-11.9404
202.9183,-316.8,-11.9426
204.6253,-316.8,-11.9373
206.3293,-316.8,-11.9284
208.0344,-316.8,-11.9252
209.74,-316.8,-11.9297
211.4402,-316.8,-11.9301
213.1438,-316.8,-11.9218
214.8532,-316.8,-11.9246
216.5611,-316.8,-11.9276
218.2629,-316.8,-11.9159
219.9643,-316.8,-11.907
221.6695,-316.8,-11.9153
223.3745,-316.8,-11.9141
225.0775,-316.8,-11.9109
226.7826,-316.8,-11.9179
228.4866,-316.8,-11.9084
230.1923,-316.8,-11.9141
231.8945,-316.8,-11.9105
233.5981,-316.8,-11.9022
235.3004,-316.8,-11.9032
237.0059,-316.8,-11.8977
238.7132,-316.8,-11.9024
240.4141,-316.8,-11.8943
242.1176,-316.8,-11.902
243.8203,-316.8,-11.8902
245.523,-316.8,-11.8953
247.2269,-316.8,-11.8971
248.93,-316.8,-11.8914
250.6342,-316.8,-11.8914
252.3435,-316.8,-11.8902
254.0487,-316.8,-11.8811
255.7483,-316.8,-11.8933
257.4548,-316.8,-11.8811
259.1563,-316.8,-11.8874
260.8607,-316.8,-11.8878
262.566,-316.8,-11.8868
264.2707,-316.8,-11.8755
265.9731,-316.8,-11.8771
267.6768,-316.8,-11.8704
269.3812,-316.8,-11.8726
271.0867,-316.8,-11.8672
272.7965,-316.8,-11.8694
274.5008,-316.8,-11.8607
276.2024,-316.8,-11.8686
277.9053,-316.8,-11.8639
279.6097,-316.8,-11.8712
281.3133,-316.8,-11.853
283.016,-316.8,-11.8611
284.7184,-316.8,-11.8745
286.4271,-316.8,-11.8621
288.1334,-316.8,-11.866
289.8429,-316.8,-11.8621
291.5463,-316.8,-11.8617
293.2478,-316.8,-11.85
294.9549,-316.8,-11.8555
296.6599,-316.8,-11.8476
298.3645,-316.8,-11.8492
300.0671,-316.8,-11.853
301.769,-316.8,-11.8488
303.4732,-316.8,-11.849
305.1766,-316.8,-11.8445
306.8835,-316.8,-11.8478
308.5855,-316.8,-11.8427
310.2891,-316.8,-11.833
311.995,-316.8,-11.8381
313.6957,-316.8,-11.8431
315.4019,-316.8,-11.8294
317.1072,-316.8,-11.8387
318.8122,-316.8,-11.8389
320.5158,-316.8,-11.8354
322.219,-316.8,-11.8358
323.9215,-316.8,-11.8405
325.6208,-316.8,-11.8276
327.3282,-316.8,-11.8235
329.0311,-316.8,-11.83
330.7338,-316.8,-11.8241
332.4363,-316.8,-11.8356
334.1391,-316.8,-11.8296
335.8432,-316.8,-11.8255
337.5462,-316.8,-11.8213
339.2491,-316.8,-11.8284
340.9512,-316.8,-11.8205
342.653,-316.8,-11.813
344.3575,-316.8,-11.8189
346.0628,-316.8,-11.8223
347.7664,-316.8,-11.8164
349.4716,-316.8,-11.8187
351.1715,-316.8,-11.8098
352.8748,-316.8,-11.8126
354.5783,-316.8,-11.8096
356.2793,-316.8,-11.8158
357.9824,-316.8,-11.8041
359.6871,-316.8,-11.8063
361.3914,-316.8,-11.8102
363.0923,-316.8,-11.8124
364.7953,-316.8,-11.7889
366.4977,-316.8,-11.8049
368.1975,-316.8,-11.8102
369.8992,-316.8,-11.8053
371.5994,-316.8,-11.8017
373.3038,-316.8,-11.795
375.0071,-316.8,-11.7952
376.7119,-316.8,-11.8027
378.4132,-316.8,-11.792
380.1193,-316.8,-11.8102
381.8217,-316.8,-11.7893
383.522,-316.8,-11.7792
385.2237,-316.8,-11.7893
386.9318,-316.8,-11.7879
388.633,-316.8,-11.7904
390.3358,-316.8,-11.7904
392.0395,-316.8,-11.7849
393.7413,-316.8,-11.7849
395.4442,-316.8,-11.7748
397.1484,-316.8,-11.7806
398.8493,-316.8,-11.7756
400.5521,-316.8,-11.7829
402.2521,-316.8,-11.7713
403.9582,-316.8,-11.7655
405.6619,-316.8,-11.775
407.3693,-316.8,-11.7813
409.072,-316.8,-11.7663
410.7715,-316.8,-11.7718
412.4742,-316.8,-11.7641
414.1798,-316.8,-11.773
415.8848,-316.8,-11.7718
417.5876,-316.8,-11.7602
419.2936,-316.8,-11.7703
420.9978,-316.8,-11.7641
422.7021,-316.8,-11.7568
424.402,-316.8,-11.7598
426.1052,-316.8,-11.7527
427.8087,-316.8,-11.7548
429.509,-316.8,-11.7562
431.2134,-316.8,-11.7556
432.9175,-316.8,-11.7507
434.6222,-316.8,-11.7495
436.3257,-316.8,-11.755
438.0304,-316.8,-11.7461
439.7321,-316.8,-11.7586
441.4388,-316.8,-11.7481
443.1433,-316.8,-11.7453
444.844,-316.8,-11.7507
446.5482,-316.8,-11.7414
448.2511,-316.8,-11.7368
449.9524,-316.8,-11.7414
451.6548,-316.8,-11.7406
453.3571,-316.8,-11.7362
455.0613,-316.8,-11.7453
456.7638,-316.8,-11.7362
458.469,-316.8,-11.7313
460.1703,-316.8,-11.7248
461.8758,-316.8,-11.7382
463.5802,-316.8,-11.743
465.2871,-316.8,-11.7341
466.9928,-316.8,-11.7343
468.7176,-312.902,-11.7374
470.42,-301.555,2.77838
472.1259,-290.168,3.63423
473.8285,-278.82,3.24624
475.5318,-267.465,3.16395
477.2562,-265.567,3.34753
478.9585,-254.218,3.45085
480.6601,-242.868,3.50726
482.3672,-231.486,3.48724
484.0727,-220.134,3.47127
485.6758,-216.8,3.47147